"Time (s)","Linear Acceleration x (m/s^2)","Linear Acceleration y (m/s^2)","Linear Acceleration z (m/s^2)","Absolute acceleration (m/s^2)"
1.992566667E-2,3.162612766E-1,2.766434669E-1,2.749863660E-1,5.021656145E-1
2.994166667E-2,6.768766075E-1,-3.495494753E-2,-1.451629758E-1,6.931493921E-1
3.995766667E-2,7.828407267E-1,-2.434099397E-1,-3.750936216E-1,9.015449113E-1
4.997366667E-2,5.672573939E-1,-3.738519654E-1,-3.756099308E-1,7.762918672E-1
5.998966667E-2,3.538129726E-1,-3.393206486E-1,-4.079064417E-1,6.377380241E-1
7.000566667E-2,4.101257524E-1,-1.960132867E-1,-3.767308420E-1,5.903816297E-1
8.002166667E-2,3.796901178E-1,-5.472379893E-2,-2.097343630E-1,4.372045091E-1
9.003766667E-2,1.767186445E-1,6.226758420E-2,1.200053304E-1,2.225039566E-1
1.000536667E-1,4.804510921E-2,1.006720966E-1,3.178283304E-1,3.368353473E-1
1.100696667E-1,-5.618881881E-3,9.026405275E-2,3.687546551E-1,3.796829819E-1
1.200856667E-1,2.585931122E-2,8.333188623E-2,3.932913262E-1,4.028535397E-1
1.301016667E-1,2.279537022E-1,2.706910014E-2,2.523740137E-1,3.411572501E-1
1.401176667E-1,5.590636906E-1,-1.495966271E-1,-2.643233836E-2,5.793358521E-1
1.501336667E-1,6.668614966E-1,-2.708757734E-1,-3.084669381E-1,7.830899004E-1
1.601496667E-1,2.611468837E-1,-1.838814837E-1,-8.223863232E-1,8.822297657E-1
1.701656667E-1,3.367999139E-1,-9.488832325E-2,-6.848036778E-1,7.690214906E-1
1.801816667E-1,3.753883213E-1,-1.009986636E-1,-4.608319294E-1,6.028956701E-1
1.901986667E-1,3.579609874E-1,-1.344195941E-1,-3.940017629E-1,5.490374167E-1
2.002146667E-1,2.718136668E-1,-1.351288614E-1,-3.113730043E-1,4.348512694E-1
2.102306667E-1,1.101586193E-1,-5.992460489E-2,-2.283928281E-1,2.605554905E-1
2.202466667E-1,8.193498641E-2,8.364149630E-3,-3.336374474E-1,3.436528005E-1
2.302626667E-1,8.485508591E-2,3.271867990E-2,-7.088947910E-1,7.147046399E-1
2.402786667E-1,2.203564149E-1,6.660066336E-2,-8.687535739E-1,8.987354283E-1
2.502946667E-1,4.070890009E-1,-1.097855669E-1,-9.489498907E-1,1.038402726E0
2.603106667E-1,2.814247352E-1,-1.012027314E-1,-9.737274671E-1,1.018620172E0
2.703266667E-1,1.749179944E-1,-1.896699348E-1,-6.858795655E-1,7.328040443E-1
2.803426667E-1,1.748066050E-1,-2.376726517E-1,-5.456422842E-1,6.202992349E-1
2.903586667E-1,3.311687529E-1,-1.756576672E-1,-4.171269161E-1,5.608237005E-1
3.003746667E-1,5.819359517E-1,-5.114150226E-2,-2.277689302E-1,6.270116352E-1
3.103906667E-1,9.068689415E-1,-8.674256712E-2,-1.558516860E-1,9.242430947E-1
3.204066667E-1,1.424344603E0,-4.333225340E-1,-2.117130607E-1,1.503778038E0
3.304226667E-1,2.145451012E0,-1.023063641E0,-1.491665643E-1,2.381568794E0
3.404386667E-1,2.602542477E0,-1.430530957E0,1.082109118E-1,2.971759709E0
3.504546667E-1,3.254490650E0,-1.754757603E0,1.847585660E-1,3.702029088E0
3.604706667E-1,3.812769060E0,-2.071811178E0,3.057789731E-1,4.350070142E0
3.704866667E-1,3.710517338E0,-2.706958838E0,4.790758270E-1,4.617908479E0
3.805036667E-1,3.087533932E0,-3.384790589E0,8.978738773E-1,4.668602640E0
3.905196667E-1,2.459837086E0,-3.598375635E0,1.392745373E0,4.575898314E0
4.005356667E-1,2.406469257E0,-3.762665731E0,1.328178079E0,4.659700065E0
4.105516667E-1,2.445659342E0,-3.774981429E0,1.271020376E0,4.674101754E0
4.205676667E-1,2.196466214E0,-3.629181983E0,1.253493347E0,4.423423026E0
4.305836667E-1,2.187214749E0,-3.545979905E0,1.248927841E0,4.349448540E0
4.405996667E-1,2.060378117E0,-3.254380138E0,9.979548204E-1,3.978952361E0
4.506156667E-1,1.312849018E0,-2.822842759E0,5.541318566E-1,3.162131544E0
4.606316667E-1,5.695287448E-1,-3.233495345E0,-6.633496588E-1,3.349610113E0
4.706476667E-1,-2.892108876E-1,-3.860813584E0,-5.395558004E0,6.640901343E0
4.806636667E-1,-1.888089908E0,-4.605702081E0,5.578132635E-1,5.008845255E0
4.906796667E-1,-7.385629785E-1,-4.635299225E0,9.485844398E-1,4.788662299E0
5.006956667E-1,1.090055484E0,-2.504269786E0,-3.041744387E0,4.088006486E0
5.107116667E-1,9.970987880E-1,-1.678492077E0,-2.064175884E0,2.841190547E0
5.207276667E-1,1.857720639E0,-1.755647842E0,-9.351112854E-1,2.721738127E0
5.307436667E-1,1.553883526E0,-2.463208006E0,5.793737018E-1,2.969448026E0
5.407596667E-1,1.403051675E0,-2.666318935E0,1.660057853E0,3.440000399E0
5.507756667E-1,1.498868244E0,-2.003513068E0,2.611516784E0,3.616723730E0
5.607916667E-1,7.724130946E-1,-8.219738021E-1,2.954250745E0,3.162255585E0
5.708086667E-1,-4.475032014E-1,5.802402592E-1,4.089627412E0,4.154755136E0
5.808246667E-1,-1.671500269E0,1.987555431E0,4.033042737E0,4.796845157E0
5.908406667E-1,-1.841385273E0,2.723504997E0,2.352606753E0,4.042639945E0
6.008566667E-1,-1.316413481E0,2.062015337E0,1.111329408E0,2.686988046E0
6.108726667E-1,-1.514550476E0,7.350949949E-1,-5.778873396E-1,1.779938643E0
6.208886667E-1,-2.320158799E0,3.182483067E-1,-1.603506507E0,2.838248043E0
6.309046667E-1,-2.392433308E0,7.102169926E-1,-1.947922127E0,3.165840476E0
6.409206667E-1,-5.674640930E-1,1.402376760E0,-1.553299389E0,2.168274675E0
6.509363333E-1,1.297197191E0,1.824430248E0,-6.494514120E-1,2.330891121E0
6.609523333E-1,1.956801124E0,9.097446021E-1,1.846386981E-1,2.165824861E0
6.709683333E-1,2.584592110E0,9.468133181E-2,-2.456918156E-1,2.597969476E0
6.809843333E-1,3.151881956E0,-7.064304820E-1,-1.797404855E-1,3.235075043E0
6.910003333E-1,4.408504148E0,-1.678811481E0,-7.506772399E-1,4.776696885E0
7.010163333E-1,6.593334403E0,-1.400552283E0,-2.671529682E0,7.250563846E0
7.110323333E-1,7.903163919E0,-1.856546811E0,-2.731130351E0,8.565386096E0
7.210483333E-1,7.513663927E0,-3.257233287E0,-2.039651492E0,8.439484137E0
7.310643333E-1,5.941511360E0,-4.431820505E0,-9.115844285E-1,7.468170888E0
7.410803333E-1,4.848910584E0,-4.586119171E0,-2.561893219E-1,6.679075974E0
7.510963333E-1,4.645859004E0,-4.000360894E0,-1.730951250E-1,6.133258114E0
7.611123333E-1,4.658366198E0,-4.203972638E0,1.527316117E-1,6.276710007E0
7.711293333E-1,4.030888038E0,-5.000579756E0,1.146606245E0,6.524458763E0
7.811453333E-1,2.947537556E0,-5.995826731E0,1.223788322E0,6.792317255E0
7.911613333E-1,2.480201769E0,-6.248303071E0,-1.293636822E0,6.845888424E0
8.011773333E-1,1.188107443E0,-5.677586757E0,-2.469839333E0,6.304498157E0
8.111933333E-1,-1.066608149E-1,-5.369599290E0,-2.062422888E0,5.753047996E0
8.212093333E-1,-1.360384542E0,-5.595476062E0,-1.507654270E0,5.952564141E0
8.312253333E-1,-3.706372247E0,-3.766465836E0,-3.872236705E-1,5.298433948E0
8.412413333E-1,-5.740701603E0,-1.496687232E0,8.777805054E-1,5.997184854E0
8.512573333E-1,-6.368545214E0,-9.315234339E-1,1.449739938E0,6.597563940E0
8.612733333E-1,-6.536389539E0,-1.411206202E0,1.122834975E0,6.780608345E0
8.712893333E-1,-7.401314356E0,-2.506102595E0,1.114027314E0,7.893102133E0
8.813053333E-1,-8.105143704E0,-3.083474211E0,1.322908568E0,8.772186430E0
8.913213333E-1,-8.474557925E0,-2.797791533E0,2.386454530E0,9.238015735E0
9.013373333E-1,-8.376197233E0,-3.265229647E0,2.950772236E0,9.462000926E0
9.113533333E-1,-8.211371825E0,-3.281866145E0,2.981786745E0,9.332112560E0
9.213693333E-1,-7.716434841E0,-2.705652278E0,2.266581346E0,8.485358679E0
9.313853333E-1,-7.789010482E0,-1.654194850E0,2.706841602E0,8.410234024E0
9.414013333E-1,-8.563861281E0,-9.400697243E-1,2.485963030E0,8.966797829E0
9.514183333E-1,-9.781728712E0,-9.736859518E-1,3.205613775E0,1.033954741E1
9.614343333E-1,-9.922360096E0,-2.159987774E0,4.190785412E0,1.098551134E1
9.714503333E-1,-9.255384579E0,-1.921944702E0,3.722345670E0,1.015932441E1
9.814663333E-1,-8.546568725E0,-1.179441285E0,3.134819196E0,9.179434084E0
9.914823333E-1,-6.887046477E0,-1.449155801E0,8.920915657E-1,7.094172896E0
1.001498333E0,-5.226467053E0,-2.190364060E0,-1.337361715E0,5.822558624E0
1.011514333E0,-4.213439280E0,-2.755001024E0,-6.357554787E-1,5.074178380E0
1.021530333E0,-3.534683377E0,-2.584519020E0,1.581418065E0,4.655599664E0
1.031546333E0,-3.392531717E0,-1.435624759E0,3.997611533E0,5.436100429E0
1.041562333E0,-3.308049392E0,1.502781200E-1,3.353651826E0,4.713040936E0
1.051578333E0,-2.701220673E0,1.108050874E0,1.236136472E0,3.170552514E0
1.061594333E0,-2.919382043E0,6.709177101E-1,2.715044661E0,4.042819511E0
1.071610333E0,-2.458030297E0,-6.765754759E-2,2.273582218E0,3.348979932E0
1.081626333E0,-1.920836800E0,-2.121876792E0,-1.406405170E1,1.435233519E1
1.091642333E0,-3.818894311E0,-6.358853454E0,-6.657925086E0,9.967293387E0
1.101658333E0,-1.085779707E-1,-6.583354960E0,7.573029538E0,1.003509482E1
1.111674333E0,7.484341018E-1,-1.956995836E0,6.530345857E-1,2.194639031E0
1.121690333E0,5.358568226E-1,-8.925189972E-3,-3.036695316E0,3.083624594E0
1.131707333E0,-3.529718506E-1,-1.125569133E0,-1.145081291E0,1.643990925E0
1.141723333E0,-1.283401124E0,-8.873664308E-1,3.915994928E0,4.215394869E0
1.151739333E0,-2.228490683E0,1.132758869E0,5.304353135E0,5.863912990E0
1.161755333E0,-3.801860494E0,2.020515894E0,3.128408893E0,5.321989280E0
1.171771333E0,-4.271239007E0,1.884764596E0,4.278836586E0,6.332792651E0
1.181787333E0,-4.341451787E0,1.851261805E0,4.119981185E0,6.264951625E0
1.191803333E0,-4.767967285E0,2.380916047E0,4.326647222E0,6.864557483E0
1.201819333E0,-4.935730042E0,3.311882241E0,5.305294536E0,7.967191798E0
1.211835333E0,-4.458958895E0,3.462280229E0,4.803004678E0,7.412054557E0
1.221851333E0,-3.100511243E0,3.824987694E0,3.922250279E0,6.295057432E0
1.231867333E0,-8.560007966E-1,4.321894605E0,2.818257372E0,5.230113284E0
1.241883333E0,1.658846017E0,4.182974702E0,3.595545291E0,5.759947344E0
1.251899333E0,-1.813896343E0,3.088917968E0,4.913831635E0,6.080902523E0
1.261915333E0,-1.172782826E1,2.023693271E0,2.281249087E0,1.211781282E1
1.271931333E0,-1.018058249E1,1.300122553E0,-2.081308225E0,1.047217372E1
1.281947333E0,-5.835541102E0,-9.384243178E-1,-6.637943981E0,8.887996424E0
1.291963333E0,3.067004943E-1,-1.218634586E0,-7.174264634E0,7.283488758E0
1.301979333E0,7.128865682E0,1.242991163E0,-7.050207183E0,1.010302797E1
1.311995333E0,1.248894278E1,4.375356867E0,-6.539564577E0,1.476087207E1
1.322011333E0,1.337579817E1,4.808153737E0,-3.876905122E0,1.473298043E1
1.332028333E0,7.927989442E0,2.364521624E0,-3.082710564E0,8.828764553E0
1.342044333E0,3.733350715E0,1.408138753E0,-2.101277052E0,4.509559574E0
1.352060333E0,3.469729582E0,1.200103006E0,-1.516409891E0,3.972249936E0
1.362076333E0,2.734153946E0,1.582340755E0,-2.653141943E0,4.125356013E0
1.372092333E0,2.696256387E0,9.406024057E-1,-1.104531947E0,3.061784155E0
1.382108333E0,2.474819407E0,1.611680914E0,1.611606801E0,3.364449873E0
1.392124333E0,2.388688751E0,5.569572312E0,2.993022462E0,6.759005337E0
1.402140333E0,2.415488294E0,7.263420639E0,2.910589001E0,8.189224103E0
1.412156333E0,1.272791498E0,5.764678695E0,3.393531591E0,6.809374077E0
1.422172333E0,1.010448566E0,4.317401605E0,2.624047952E0,5.152338360E0
1.432188333E0,-7.341676265E-1,3.907460917E0,-2.088724834E-1,3.981316445E0
1.442204333E0,-9.890723151E-1,1.061504114E0,-9.046472919E-1,1.709807519E0
1.452220333E0,-4.042302972E-1,5.330248699E-1,-1.951134733E0,2.062630454E0
1.462236333E0,1.628381732E0,-3.668794531E-1,-2.339212097E0,2.873698111E0
1.472252333E0,2.424021136E0,-4.258507279E0,-1.366622644E0,5.087083660E0
1.482268333E0,1.686884878E0,-4.286014920E0,5.766787201E-2,4.606390135E0
1.492284333E0,4.062373540E0,-3.506650656E0,-3.077111855E-1,5.375329178E0
1.502300333E0,5.076311724E0,-2.589678895E0,1.553226738E0,5.906597227E0
1.512316333E0,2.483252846E0,-2.598049184E0,2.921724146E0,4.631724975E0
1.522332333E0,7.875720012E-1,-3.160668859E0,2.245553589E0,3.956337728E0
1.532348333E0,-4.451251388E-2,-3.965658839E0,-9.450281632E-1,4.076948567E0
1.542364333E0,-1.817470161E0,-5.112634043E0,-1.982600793E0,5.776930894E0
1.552381333E0,-2.577426932E0,-5.294708737E0,-8.678516409E-1,5.952330356E0
1.562397333E0,-1.319246457E0,-2.706707700E0,9.750062531E-1,3.165014215E0
1.572413333E0,1.121648574E0,6.785459876E-2,1.467365492E0,1.848204875E0
1.582429333E0,2.561400298E0,3.673992705E-1,2.588001329E0,3.659713731E0
1.592445333E0,7.824825847E-1,-3.670436721E0,4.060549793E0,5.529235873E0
1.602461333E0,-2.458869372E0,-8.098663235E0,4.443115572E0,9.559061710E0
1.612477333E0,-3.731198355E0,-7.993736705E0,3.342411139E0,9.433630260E0
1.622493333E0,-3.810611145E0,-5.520249878E0,1.129090618E0,6.802114498E0
1.632509333E0,-3.428900229E0,-3.098534884E0,-4.578592050E-1,4.644126426E0
1.642525333E0,-2.047631772E0,-5.675629109E-1,-2.544319120E0,3.314888130E0
1.652541542E0,-2.049185961E0,-3.364253998E-2,-4.509451064E0,4.953326541E0
1.662557542E0,-3.361270748E0,-2.394060588E-1,-5.893479992E0,6.788855774E0
1.672573542E0,-3.117489803E0,3.279065913E-1,-4.473763753E0,5.462675857E0
1.682589542E0,-3.982649678E0,8.428182489E-1,-1.143416589E0,4.228385337E0
1.692605542E0,-3.051896907E0,2.092723160E0,9.502011949E-1,3.820529710E0
1.702621542E0,7.548638463E-2,3.932339650E0,2.162314382E0,4.488273254E0
1.712637542E0,-3.620911682E-1,6.272940314E0,1.800749317E0,6.536328350E0
1.722653542E0,6.443742746E-1,5.849759776E0,6.177685078E0,8.532215455E0
1.732669542E0,1.195100128E0,4.158992931E0,1.036889207E1,1.123563124E1
1.742685542E0,-2.868786086E0,3.054169720E0,4.505343980E0,6.152723841E0
1.752702542E0,-4.431770219E0,1.503198692E0,-3.551736197E0,5.874948816E0
1.762718542E0,-2.554323998E0,-2.772047997E-1,-8.464838099E0,8.846179832E0
1.772734542E0,6.225507116E-1,-6.935955513E-1,-8.526749588E0,8.577534769E0
1.782750542E0,2.196731678E0,8.464598948E-1,-4.265961310E0,4.872427558E0
1.792766542E0,3.120792895E0,1.819904357E0,-4.501443156E-1,3.640608475E0
1.802782542E0,2.901539265E0,2.467541378E0,1.380457449E0,4.051339695E0
1.812798542E0,2.643209862E0,2.675596420E0,1.589455063E0,4.083104453E0
1.822814542E0,1.637581741E0,2.335906520E0,9.655665082E-1,3.011719095E0
1.832830542E0,1.272997320E-2,1.715341523E0,6.100060952E-1,1.820622429E0
1.842846542E0,-1.303343784E0,8.283902442E-1,-2.712926799E-1,1.567971663E0
1.852862542E0,-2.176388630E0,-3.939853907E-3,-1.083277245E0,2.431084651E0
1.862878542E0,-1.819351210E0,2.083462340E-1,-1.560063449E0,2.405669333E0
1.872894542E0,-7.617249691E-1,1.367057385E0,-1.681202554E0,2.296848460E0
1.882910542E0,1.293877727E-1,2.329824831E0,-1.408336973E0,2.725479402E0
1.892926542E0,5.539728123E-1,2.526729233E0,-7.686936077E-1,2.698543377E0
1.902942542E0,7.492323929E-1,2.619021685E0,4.522002697E-2,2.724457490E0
1.912958542E0,3.741165519E-1,2.155620489E0,3.404681647E-1,2.214177377E0
1.922974542E0,2.600052148E-1,1.748456644E0,-7.772590477E-2,1.769391043E0
1.932990542E0,5.860196471E-2,1.375132390E0,-8.771414047E-1,1.632115291E0
1.943007542E0,-7.257166457E-1,5.290063709E-1,-1.136406947E0,1.448424364E0
1.953023542E0,-1.236820012E0,-1.170755830E0,-2.012615136E0,2.636477317E0
1.963039542E0,-1.192375326E0,-2.726515728E0,-2.647708125E0,3.983215441E0
1.973055542E0,-5.109063148E-1,-3.359441739E0,-2.807260514E0,4.407673497E0
1.983071542E0,-1.811911798E-1,-3.189977735E0,-2.937459880E0,4.340214136E0
1.993087542E0,8.499483436E-2,-2.701480290E0,-2.744147422E0,3.851696373E0
2.003103542E0,8.629414415E-1,-2.113000134E0,-2.190782136E0,3.163694654E0
2.013119542E0,1.391483544E0,-1.924288850E0,-1.386678886E0,2.749907701E0
2.023135542E0,1.315931378E0,-2.104521087E0,-1.051728008E0,2.695703285E0
2.033151542E0,1.155308364E0,-2.278783316E0,-2.172215764E-1,2.564132608E0
2.043167542E0,5.113384241E-1,-1.385291927E0,2.813035516E-1,1.503207369E0
2.053183542E0,3.757306758E-1,-1.180393211E0,4.289271820E-1,1.310908159E0
2.063199542E0,4.256302294E-1,-3.036065571E0,1.582116661E0,3.449920053E0
2.073215542E0,1.689286914E-1,-4.380250987E0,1.298048400E0,4.571658917E0
2.083231542E0,-5.166015029E-3,-4.737590708E0,1.748761868E-1,4.740819980E0
2.093247542E0,-4.415232539E-3,-3.592771956E0,-5.910250099E-1,3.641063085E0
2.103263542E0,5.266525742E-1,-1.592055904E0,-4.638958704E-1,1.739886294E0
2.113280542E0,4.066294098E-1,-8.316658545E-1,2.547555846E-1,9.601645579E-1
2.123296542E0,1.620938811E-1,-4.784297097E-1,4.856489745E-1,7.007312893E-1
2.133312542E0,1.335623923E-1,-1.623795176E-1,2.060919861E-1,2.944145498E-1
2.143328542E0,-4.812170774E-2,-1.568024433E-1,-1.443836881E-1,2.185162565E-1
2.153344542E0,-5.221581119E-1,-1.549389356E-1,-4.671708959E-1,7.175679854E-1
2.163360542E0,-7.409158981E-1,-2.364766037E-1,-5.403792053E-1,9.470413073E-1
2.173376542E0,-7.864429039E-1,-2.982810885E-1,-5.568651375E-1,1.008743193E0
2.183392542E0,-8.001613489E-1,-3.043446511E-1,-4.671458991E-1,9.752482463E-1
2.193408542E0,-6.872141925E-1,-1.632957762E-1,-3.466308376E-1,7.868175102E-1
2.203424542E0,-6.729943487E-1,7.783813477E-3,-2.188867173E-1,7.077382116E-1
2.213440542E0,-6.401446912E-1,-6.105545640E-2,5.507653221E-2,6.454040740E-1
2.223456542E0,-5.518110967E-1,-2.444773489E-1,4.301678149E-1,7.411538366E-1
2.233472542E0,-6.685873023E-1,-3.568842226E-1,6.298766881E-1,9.854541955E-1
2.243488542E0,-7.871729288E-1,-5.795719224E-1,8.080322859E-1,1.268251161E0
2.253504542E0,-9.455883265E-1,-7.564911264E-1,1.057768621E0,1.607883877E0
2.263520542E0,-8.598163971E-1,-6.506103301E-1,1.065317961E0,1.515744172E0
2.273536542E0,-4.706774712E-1,-3.783575374E-1,8.263162369E-1,1.023469702E0
2.283552542E0,-3.698100775E-2,-1.213513595E-1,5.916616255E-1,6.051092682E-1
2.293568542E0,3.614301404E-1,1.003598553E-1,2.970467412E-1,4.784773907E-1
2.303585542E0,7.834833357E-1,2.663968062E-1,1.291503757E-1,8.375519179E-1
2.313601542E0,1.073908982E0,1.874535477E-1,6.213309824E-2,1.091915682E0
2.323617542E0,1.228348566E0,1.469528085E-1,-9.775959849E-3,1.237146271E0
2.333633542E0,1.725906857E0,3.777418256E-1,-9.475953832E-2,1.769300069E0
2.343649542E0,1.950230023E0,4.789816868E-1,-2.600040454E-1,2.024950049E0
2.353665542E0,2.026937306E0,5.249905032E-1,-6.569568980E-1,2.194466276E0
2.363681542E0,2.102530695E0,8.233060902E-1,-1.043823888E0,2.487576441E0
2.373697542E0,1.882039794E0,1.086274089E0,-1.158430485E0,2.462524390E0
2.383713542E0,1.862120084E0,1.352836956E0,-1.139135989E0,2.568129638E0
2.393729542E0,1.641641462E0,1.521050826E0,-1.014314745E0,2.457115526E0
2.403745542E0,1.559000425E0,1.713499650E0,-8.728629971E-1,2.475571285E0
2.413761542E0,1.527079890E0,1.781802145E0,-6.351479530E-1,2.431091277E0
2.423777542E0,1.566486030E0,1.853194309E0,-3.988064200E-1,2.459116547E0
2.433793542E0,1.550329589E0,1.698616732E0,-2.100100592E-2,2.299839489E0
2.443809542E0,1.524769655E0,1.214491834E0,1.514906864E-1,1.955214143E0
2.453825542E0,1.458306109E0,8.106451142E-1,2.547889137E-1,1.687815037E0
2.463842542E0,1.420046023E0,3.032863051E-1,3.036444470E-2,1.452389510E0
2.473858542E0,1.865619643E0,-5.628091246E-1,-4.844549730E-2,1.949265946E0
2.483874542E0,2.632901806E0,-1.405050253E0,2.634767067E-1,2.995956960E0
2.493890542E0,3.316703855E0,-2.115023856E0,8.403793752E-1,4.022447994E0
2.503906542E0,3.844799230E0,-2.983554066E0,1.235226645E0,5.020942227E0
2.513922542E0,3.979476979E0,-3.982550275E0,1.189584888E0,5.754307597E0
2.523938542E0,3.463568956E0,-4.543653182E0,1.220168165E0,5.842080494E0
2.533954542E0,2.361949434E0,-5.097435960E0,1.897222089E0,5.929764764E0
2.543970542E0,1.025043801E0,-5.114353124E0,2.082927319E0,5.616574480E0
2.553986542E0,3.584255487E-1,-4.767801517E0,1.838851528E0,5.122672654E0
2.564002542E0,-7.621658492E-1,-4.034626163E0,1.093026892E0,4.248977858E0
2.574018542E0,-1.880006717E0,-2.525563298E0,-5.046822461E-1,3.188667339E0
2.584034542E0,-2.840749857E0,-6.329827291E-1,-2.009740937E0,3.536889243E0
2.594050542E0,-3.027293578E0,3.641143048E-1,-2.500976926E0,3.943598765E0
2.604066542E0,-2.262895846E0,6.792821521E-1,-2.241565204E0,3.256798492E0
2.614082542E0,-5.324579823E-1,6.699254376E-1,-1.886450933E0,2.071475010E0
2.624098542E0,1.005809385E0,7.979022771E-1,-1.547054271E0,2.010392370E0
2.634115542E0,1.500066923E0,1.257447819E0,-1.687664458E0,2.584489720E0
2.644131542E0,1.165783943E0,1.538331102E0,-1.853301606E0,2.675862781E0
2.654147917E0,4.644168574E-1,1.185131795E0,-1.470243199E0,1.944694180E0
2.664163917E0,-4.026878017E-1,4.623182917E-1,-1.156636559E0,1.309085099E0
2.674179917E0,-1.096075192E0,-2.501392078E-1,-1.064102032E0,1.547986946E0
2.684195917E0,-1.274288970E0,-5.638861817E-1,-5.840323247E-1,1.510918185E0
2.694211917E0,-1.528134143E0,-7.939682704E-1,-1.925752701E-1,1.732819900E0
2.704227917E0,-1.443499789E0,-8.086839581E-1,-2.084780887E-2,1.654719317E0
2.714243917E0,-1.404203576E0,-5.696088517E-1,-6.009241998E-2,1.516526632E0
2.724259917E0,-1.012407968E0,-1.808058482E-1,-3.516573966E-2,1.029027345E0
2.734275917E0,-7.962510234E-1,2.888436824E-1,-1.813052005E-1,8.662089476E-1
2.744291917E0,-6.033882165E-1,7.679563469E-1,-4.239810222E-1,1.064703808E0
2.754307917E0,-3.144626731E-1,1.149476643E0,-3.753481217E-1,1.249427684E0
2.764323917E0,-3.937795687E-1,1.497995839E0,-4.485223711E-1,1.612521690E0
2.774339917E0,-7.300921172E-1,1.687979477E0,-6.664608161E-1,1.956138859E0
2.784355917E0,-1.292598356E0,1.761980669E0,-5.512035710E-1,2.253710666E0
2.794371917E0,-1.877180758E0,1.708130152E0,-4.679099840E-1,2.580785920E0
2.804387917E0,-2.057155716E0,1.714646873E0,-5.114256938E-1,2.726437196E0
2.814404917E0,-2.055971071E0,1.709863266E0,-6.488218130E-1,2.751657533E0
2.824420917E0,-2.063123969E0,1.635988374E0,-7.389176121E-1,2.734764654E0
2.834436917E0,-1.771170738E0,1.502704602E0,-7.296173233E-1,2.434647478E0
2.844452917E0,-1.522622557E0,1.028724623E0,-3.284775719E-1,1.866695293E0
2.854468917E0,-1.339448002E0,6.459518534E-1,9.293783829E-2,1.489970533E0
2.864484917E0,-1.125982531E0,4.164194030E-1,4.351645531E-1,1.276953393E0
2.874500917E0,-8.403483850E-1,2.769182861E-1,6.254235949E-1,1.083523797E0
2.884516917E0,-8.722010922E-1,1.772554189E-1,2.848738615E-1,9.345091470E-1
2.894532917E0,-7.648912364E-1,1.362038720E-1,1.157153745E-1,7.854935685E-1
2.904548917E0,-6.103633600E-1,2.314322108E-1,-1.297902073E-1,6.655447373E-1
2.914564917E0,-5.063273603E-1,4.182729703E-1,-3.537280418E-1,7.459512055E-1
2.924580917E0,-4.052781183E-1,5.366779178E-1,-6.893962272E-1,9.630891437E-1
2.934596917E0,-2.165019304E-1,5.374322087E-1,-9.523496081E-1,1.114753892E0
2.944612917E0,-1.843773276E-1,4.997732162E-1,-1.362373180E0,1.462815419E0
2.954628917E0,-2.497591388E-1,3.363955790E-1,-1.615680994E0,1.669121532E0
2.964644917E0,-2.585931122E-1,1.440911812E-1,-1.958409693E0,1.980656757E0
2.974660917E0,-1.294012213E-1,-2.994709969E-2,-2.077105393E0,2.081347717E0
2.984676917E0,1.286621332E-2,-1.516387671E-1,-1.907626479E0,1.913687184E0
2.994693917E0,2.146536255E-1,-2.491925436E-1,-1.918700959E0,1.946686023E0
3.004709917E0,4.064580864E-1,-2.440820771E-1,-1.990959680E0,2.046632523E0
3.014725917E0,6.098996758E-1,-2.600128162E-1,-1.603728409E0,1.735375777E0
3.024741917E0,5.860278332E-1,-4.401012111E-1,-1.363877230E0,1.548314825E0
3.034757917E0,5.676658219E-1,-6.305035096E-1,-1.403265098E0,1.639796358E0
3.044773917E0,2.827590698E-1,-8.272371733E-1,-1.356600224E0,1.613889154E0
3.054789917E0,1.454576755E-1,-9.027095246E-1,-1.267657935E0,1.563009616E0
3.064805917E0,2.738391423E-1,-9.078480577E-1,-9.343306822E-1,1.331221167E0
3.074821917E0,2.919111317E-1,-9.339529520E-1,-5.273328978E-1,1.111557561E0
3.084837917E0,4.835413456E-1,-8.109596944E-1,7.365269780E-2,9.470441271E-1
3.094853917E0,7.165604907E-1,-8.735494602E-1,5.904471588E-1,1.274823691E0
3.104869917E0,9.399252981E-1,-1.107484279E0,1.034473606E0,1.783288153E0
3.114885917E0,1.391946643E0,-1.468835190E0,1.771625651E0,2.689544519E0
3.124901917E0,2.015866773E0,-1.629709634E0,2.795821898E0,3.812649003E0
3.134917917E0,1.876138199E0,-1.708936483E0,3.222825054E0,4.102067743E0
3.144933917E0,1.527648239E0,-1.824516056E0,3.487416825E0,4.221924216E0
3.154949917E0,1.260844467E0,-1.907907876E0,3.910027260E0,4.529696944E0
3.164965917E0,1.131317530E0,-1.911864102E0,3.618038945E0,4.245622393E0
3.174981917E0,1.233854304E0,-2.018631921E0,2.870177431E0,3.719568491E0
3.184998917E0,1.579152853E0,-2.101921999E0,2.323804245E0,3.508826869E0
3.195014917E0,1.790195239E0,-1.871482061E0,1.543728375E0,3.015019302E0
3.205030917E0,1.776059595E0,-1.590713968E0,1.011342313E0,2.589898046E0
3.215046917E0,1.462326654E0,-1.441390114E0,9.793042490E-1,2.274871758E0
3.225062917E0,9.660290229E-1,-1.189825355E0,8.326303527E-1,1.744181686E0
3.235078917E0,4.485521919E-1,-1.049774015E0,6.837915248E-1,1.330712366E0
3.245094917E0,6.414804876E-2,-7.737591237E-1,5.765705466E-1,9.670841478E-1
3.255110917E0,-1.862273866E-1,-3.594897419E-1,2.255218452E-1,4.634367451E-1
3.265126917E0,-5.249671143E-1,1.285568833E-1,-7.500457406E-2,5.456583450E-1
3.275142917E0,-6.836693180E-1,6.040974838E-1,-1.365438876E-1,9.224867150E-1
3.285158917E0,-6.699131584E-1,1.146547188E0,-2.254028544E-1,1.346907770E0
3.295174917E0,-4.676608926E-1,1.745885038E0,-5.161164764E-1,1.879680158E0
3.305190917E0,-1.821308273E-1,1.903773310E0,-7.688375223E-1,2.061221868E0
3.315206917E0,1.816250432E-1,1.820857453E0,-1.123492202E0,2.147264363E0
3.325222917E0,4.488439679E-1,1.928846755E0,-1.183374707E0,2.307008107E0
3.335238917E0,7.252512074E-1,2.126563920E0,-1.092356948E0,2.498300847E0
3.345254917E0,9.657214594E-1,2.386061597E0,-1.211868188E0,2.845089170E0
3.355270917E0,1.148801875E0,2.575225455E0,-9.423647565E-1,2.973143661E0
3.365286917E0,9.147126889E-1,2.658851749E0,-7.364375156E-1,2.906635880E0
3.375302917E0,5.488313556E-1,2.386255724E0,-8.167420059E-2,2.449918961E0
3.385318917E0,1.048581183E-1,1.694326630E0,2.015877298E-1,1.709495705E0
3.395335917E0,-4.347369754E-1,8.970505893E-1,-1.119852895E-1,1.003113504E0
3.405351917E0,-5.824826664E-1,3.057655245E-1,-1.495355237E-1,6.746402637E-1
3.415367917E0,2.247084975E-3,9.455532432E-2,-1.161471914E0,1.165316594E0
3.425383917E0,7.159903872E-1,1.495244139E-1,-1.798192475E0,1.941261436E0
3.435399917E0,1.111493130E0,5.550305736E-1,-1.684008341E0,2.092692048E0
3.445415917E0,1.590015226E0,1.243061330E0,-1.448806430E0,2.484429504E0
3.455431917E0,2.076504153E0,1.874558866E0,-1.173840821E0,3.033767083E0
3.465447917E0,2.409640494E0,2.218877422E0,-9.070835343E-1,3.398909364E0
3.475463917E0,2.767526929E0,2.238897704E0,-6.490897617E-1,3.618450739E0
3.485479917E0,2.988397315E0,2.053425778E0,-5.288941044E-1,3.664260486E0
3.495495917E0,2.895282159E0,1.666030784E0,-3.505467179E-1,3.358749820E0
3.505511917E0,2.313745573E0,9.953335136E-1,-3.039467481E-1,2.537024045E0
3.515527917E0,1.325654420E0,2.366619605E-1,-3.167913267E-1,1.383374595E0
3.525543917E0,2.503660798E-2,-3.997086453E-1,3.238977402E-1,5.150762847E-1
3.535559917E0,-1.455577213E0,-1.270439748E0,1.123369264E0,2.234878225E0
3.545575917E0,-2.980604730E0,-2.190437150E0,1.932173675E0,4.173166013E0
3.555591917E0,-3.823278553E0,-2.741064770E0,1.973916509E0,5.101690048E0
3.565607917E0,-3.949050992E0,-2.517759604E0,1.269315328E0,4.852347738E0
3.575623917E0,-3.577991949E0,-2.009059444E0,1.152460477E0,4.262219069E0
3.585639917E0,-3.683063491E0,-2.257524009E0,1.414890386E0,4.545688742E0
3.595655917E0,-3.236590569E0,-2.431220228E0,1.760672647E0,4.414331034E0
3.605672917E0,-2.105000558E0,-2.071567934E0,1.393655199E0,3.265684594E0
3.615688917E0,-1.227860908E0,-1.728579619E0,9.443364376E-1,2.321077598E0
3.625704917E0,-8.086126220E-1,-1.193545353E0,2.292003286E-1,1.459773158E0
3.635720917E0,-4.102897668E-1,-4.068311387E-1,-2.971783036E-1,6.497416504E-1
3.645736917E0,5.747286737E-2,2.976121670E-1,-4.151262912E-1,5.140096984E-1
3.655751958E0,4.912427133E-1,8.556499636E-1,-3.962272131E-1,1.063227289E0
3.665767958E0,5.090697044E-1,1.210618054E0,-9.895009160E-1,1.644341844E0
3.675783958E0,2.756266361E-1,1.470795761E0,-1.801914374E0,2.342243716E0
3.685799958E0,1.367646199E-1,1.529001870E0,-1.937591266E0,2.472005500E0
3.695815958E0,6.030876696E-2,1.505641074E0,-1.522106541E0,2.141821774E0
3.705831958E0,-9.182993710E-2,1.295667560E0,-1.265627197E0,1.813559859E0
3.715847958E0,-2.007694119E-1,8.293181974E-1,-1.048518325E0,1.351838640E0
3.725863958E0,-8.194592071E-1,3.494810629E-1,-9.671370703E-1,1.314916164E0
3.735879958E0,-1.157964461E0,-5.932000279E-2,-7.823839130E-1,1.398758429E0
3.745895958E0,-1.373479382E0,-5.079324210E-1,-2.732585138E-1,1.489668142E0
3.755911958E0,-1.537628852E0,-9.655255777E-1,1.202316177E-1,1.819614731E0
3.765927958E0,-1.505130612E0,-1.279749684E0,4.517089574E-1,2.026627345E0
3.775943958E0,-1.488709876E0,-1.621260408E0,7.435505073E-1,2.323275653E0
3.785959958E0,-1.604359615E0,-1.929719744E0,8.066022031E-1,2.635980877E0
3.795975958E0,-1.487633404E0,-1.849945596E0,9.408554439E-1,2.553538882E0
3.805991958E0,-1.373035578E0,-1.375369787E0,8.865184383E-1,2.136067342E0
3.816008958E0,-8.551319003E-1,-7.607005370E-1,6.968062574E-1,1.339945833E0
3.826024958E0,-9.911966085E-2,4.575738609E-2,5.239150541E-1,5.351685991E-1
3.836040958E0,5.702152079E-1,8.482339400E-1,5.370718740E-1,1.154596206E0
3.846056958E0,9.892114788E-1,1.625106121E0,7.374233562E-1,2.040417227E0
3.856072958E0,1.052569569E0,2.166341944E0,8.485684007E-1,2.553626528E0
3.866088958E0,9.528225017E-1,2.433858492E0,9.398177093E-1,2.777552017E0
3.876104958E0,7.383396149E-1,2.645955130E0,1.065176166E0,2.946323845E0
3.886120958E0,4.982973790E-1,2.801033814E0,1.209268662E0,3.091346212E0
3.896136958E0,2.006226468E-1,2.945689251E0,1.513264089E0,3.317725548E0
3.906152958E0,-2.095519298E-1,2.969856378E0,1.880447597E0,3.521369348E0
3.916168958E0,-5.164407045E-1,2.866061284E0,2.143507982E0,3.616026100E0
3.926184958E0,-5.644919533E-1,2.869576045E0,2.403619470E0,3.785565268E0
3.936200958E0,-7.023266137E-1,2.752699560E0,2.434542470E0,3.741338608E0
3.946216958E0,-5.354529262E-1,2.797764051E0,2.227366848E0,3.615986255E0
3.956232958E0,-4.505928701E-1,2.889665909E0,2.078855903E0,3.588153406E0
3.966248958E0,-6.163076395E-1,3.035096687E0,2.142854263E0,3.766094980E0
3.976264958E0,-6.668568188E-1,3.368685018E0,2.354437954E0,4.163666034E0
3.986280958E0,-6.062369800E-1,3.926310001E0,1.888075728E0,4.398666100E0
3.996296958E0,5.705303729E-2,4.188610248E0,6.036897866E-1,4.232275064E0
4.006312958E0,1.047363793E0,4.338836328E0,-9.529543564E-1,4.564054513E0
4.016328958E0,2.056413705E0,4.424758823E0,-6.040526064E-1,4.916523926E0
4.026345958E0,2.539524695E0,3.959506983E0,3.536746860E-1,4.717199064E0
4.036361958E0,2.346722115E0,2.934950255E0,1.179915494E-1,3.759648878E0
4.046377958E0,1.723893076E0,1.053697497E0,-1.265121705E0,2.383824381E0
4.056393958E0,5.906781238E-1,-1.423552013E0,-1.075169057E0,1.879199160E0
4.066409958E0,-1.427119399E0,-4.361062764E0,1.101298510E0,4.718940201E0
4.076425958E0,-4.071654240E0,-8.199321299E0,2.011529893E0,9.373019285E0
4.086441958E0,-5.758212259E0,-1.250939751E1,4.218027882E-1,1.377751618E1
4.096457958E0,-6.794872724E0,-1.599723592E1,-1.730163630E0,1.746640543E1
4.106473958E0,-8.989940869E0,-1.914011667E1,-6.896235377E-1,2.115747347E1
4.116489958E0,-1.260303482E1,-1.994863691E1,1.306807236E0,2.363244267E1
4.126505958E0,-1.194193225E1,-1.847170274E1,1.607010304E0,2.205438800E1
4.136521958E0,-6.817980335E0,-1.512101194E1,1.350808703E0,1.664195127E1
4.146537958E0,-4.178216237E0,-1.244483723E1,8.900599506E-1,1.315764688E1
4.156553958E0,-2.602316190E0,-1.063175716E1,6.605734009E-1,1.096552174E1
4.166569958E0,-1.461467698E0,-8.470822139E0,6.301135004E-2,8.596201835E0
4.176585958E0,-9.908545464E-1,-6.193370234E0,-1.512354847E0,6.451886916E0
4.186601958E0,-7.672704685E-1,-3.751363063E0,-2.925034547E0,4.818428779E0
4.196617958E0,-6.805352104E-1,-1.240455226E0,-3.799988508E0,4.054845250E0
4.206633958E0,-5.865920895E-1,1.167660314E0,-4.042784490E0,4.248720669E0
4.216649958E0,-3.713590050E-1,3.395001581E0,-3.772033555E0,5.088435947E0
4.226666958E0,1.334428167E-1,5.430786894E0,-3.217992915E0,6.314010744E0
4.236682958E0,8.235779858E-1,7.248937086E0,-2.446470936E0,7.694841754E0
4.246698958E0,1.935314945E0,8.855384742E0,-1.395802882E0,9.171234843E0
4.256714958E0,2.913251823E0,1.023956570E1,-1.049494080E0,1.069753148E1
4.266730958E0,3.892055842E0,1.091630256E1,-4.516535550E-1,1.159817879E1
4.276746958E0,4.841713246E0,1.142886480E1,5.861529636E-1,1.242596930E1
4.286762958E0,5.584224265E0,1.136272461E1,8.562493032E-1,1.268969007E1
4.296778958E0,5.788844068E0,1.111323912E1,2.877303725E-1,1.253385767E1
4.306794958E0,6.153793940E0,1.079468281E1,-4.494202110E-1,1.243367747E1
4.316810958E0,6.746967071E0,1.019544846E1,-9.738037732E-1,1.226446198E1
4.326826958E0,7.443487984E0,9.493099623E0,-1.416582424E0,1.214624055E1
4.336842958E0,7.650720323E0,9.127891304E0,-1.826183389E0,1.204935131E1
4.346858958E0,7.830314044E0,8.922031891E0,-2.098306081E0,1.205484797E1
4.356874958E0,7.894443966E0,9.061258188E0,-2.494517507E0,1.227400762E1
4.366890958E0,7.793612241E0,9.465794880E0,-3.351891522E0,1.271128795E1
4.376906958E0,7.746894742E0,9.711765023E0,-4.045391471E0,1.306514256E1
4.386922958E0,7.559364595E0,9.782221633E0,-4.667404532E0,1.321440571E1
4.396938958E0,7.308454725E0,1.015366659E1,-5.248369553E0,1.356671805E1
4.406954958E0,7.038385282E0,1.054177085E1,-5.088472179E0,1.365870965E1
4.416970958E0,6.685773620E0,1.095842590E1,-4.514599245E0,1.360765496E1
4.426987958E0,5.930368322E0,1.125999254E1,-4.010850507E0,1.334329877E1
4.437003958E0,4.455059094E0,1.109602842E1,-3.124383670E0,1.235844536E1
4.447019958E0,2.322231052E0,1.013121094E1,-1.916276118E0,1.056912042E1
4.457035958E0,1.578052408E0,7.673418630E0,-7.885093099E-1,7.873585575E0
4.467051958E0,7.094339043E-1,5.690190430E0,-2.062056268E0,6.093737740E0
4.477067958E0,-6.185845453E-1,4.579825813E0,-5.538261641E0,7.213168050E0
4.487083958E0,-9.669452816E-1,2.013417959E0,4.744210633E0,5.243698083E0
4.497099958E0,-1.093800625E0,-4.584542177E0,2.679247772E1,2.720388372E1
4.507115958E0,-7.694628820E0,-1.391687962E1,1.302646211E1,2.055664287E1
4.517131958E0,-2.353740060E1,-2.593453448E1,-1.089116538E1,3.667733345E1
4.527147958E0,-3.610356288E1,-3.942766756E1,-5.686103227E0,5.376188233E1
4.537163958E0,-3.886186758E1,-3.793082245E1,1.807842135E-1,5.430492359E1
4.547179958E0,-2.254655950E1,-2.141615004E1,3.813580946E0,3.132957433E1
4.557195958E0,-7.549488648E0,-1.256734576E1,5.946027750E0,1.582049949E1
4.567211958E0,-1.437336239E0,-1.028868114E1,6.717739763E0,1.237137513E1
4.577227958E0,1.956936194E0,-8.694161219E0,6.543657044E0,1.105610628E1
4.587243958E0,3.149588093E0,-7.540695605E0,3.777883109E0,9.003021502E0
4.597259958E0,2.542964028E0,-7.733509296E0,3.120831487E0,8.718567614E0
4.607275958E0,4.461367071E-2,-9.738807226E0,3.495821028E0,1.034732435E1
4.617291958E0,-4.038939069E0,-1.227911545E1,4.112471899E0,1.356473848E1
4.627308958E0,-7.618488716E0,-1.324957783E1,4.856580377E0,1.603680317E1
4.637324958E0,-1.050116662E1,-1.160724230E1,3.651685285E0,1.607287714E1
4.647340958E0,-1.168125870E1,-8.017207428E0,8.606744760E-1,1.419394872E1
4.657357917E0,-9.464035453E0,-3.467260888E0,-8.538919982E-1,1.011528530E1
4.667373917E0,-4.590035051E0,-2.351142025E-1,-2.690434315E0,5.325611445E0
4.677389917E0,-8.387632048E-1,1.643136595E0,-4.137092185E0,4.529785131E0
4.687405917E0,1.440855678E0,3.593979991E0,-1.870476925E0,4.300167577E0
4.697421917E0,2.665294796E0,5.759692774E0,4.930179280E-1,6.365604754E0
4.707437917E0,3.754570261E0,7.325425099E0,2.632907653E-1,8.235773961E0
4.717453917E0,4.925279898E0,8.597738879E0,-4.061402902E-1,9.916876819E0
4.727469917E0,6.279588599E0,9.274980937E0,-3.185710730E-1,1.120535550E1
4.737485917E0,7.334297079E0,9.412909738E0,-1.179364247E0,1.199106682E1
4.747501917E0,7.929532523E0,9.487899694E0,-2.136465011E0,1.254839469E1
4.757517917E0,8.392207494E0,9.908658900E0,-2.632372633E0,1.324915294E1
4.767533917E0,8.849321179E0,1.095596773E1,-2.729299588E0,1.434547979E1
4.777549917E0,9.091207627E0,1.152754475E1,-2.354994755E0,1.486877078E1
4.787565917E0,9.196368046E0,1.177738926E1,-2.081196690E0,1.508679763E1
4.797581917E0,9.343171166E0,1.259018264E1,-2.353316166E0,1.585388417E1
4.807597917E0,9.178476151E0,1.354840096E1,-2.441686452E0,1.654585826E1
4.817613917E0,8.690918353E0,1.381440015E1,-2.396474465E0,1.649584200E1
4.827629917E0,8.062625676E0,1.363039295E1,-2.684122830E0,1.606231802E1
4.837645917E0,7.045265701E0,1.287222543E1,-2.622738760E0,1.490666679E1
4.847662917E0,5.676751775E0,1.157231922E1,-1.904786194E0,1.302966973E1
4.857678917E0,4.252427929E0,1.028126219E1,-1.351134978E0,1.120772329E1
4.867694917E0,3.069898145E0,9.262088996E0,-1.066685624E0,9.815721340E0
4.877710917E0,2.275549806E0,8.455274978E0,-5.469122994E-1,8.773192972E0
4.887726917E0,1.623938432E0,7.997049737E0,1.506207669E-1,8.161658357E0
4.897742917E0,9.748612422E-1,7.787546924E0,8.631931642E-1,7.895653486E0
4.907758917E0,3.517930520E-1,8.044900426E0,-4.196353716E-1,8.063515056E0
4.917774917E0,4.485054141E-1,8.289849645E0,-2.409576175E0,8.644583367E0
4.927790917E0,3.160735810E-1,8.595328656E0,-1.385723159E0,8.712049466E0
4.937806917E0,1.024293603E0,8.422396669E0,-9.573529243E-2,8.484993122E0
4.947822917E0,2.696265158E0,7.532092012E0,1.501816410E-1,8.001550500E0
4.957838917E0,5.685822560E0,6.138639711E0,2.327750823E0,8.685038836E0
4.967854917E0,8.220511023E0,4.553129180E0,4.411293270E0,1.038110279E1
4.977870917E0,8.266547906E0,2.796184133E0,2.574769665E0,9.098565756E0
4.987886917E0,5.781310515E0,1.262822580E0,-1.629290681E0,6.137822111E0
4.997902917E0,1.097514777E0,-8.456670123E-1,2.280797682E0,2.668656862E0
5.007918917E0,-6.548332477E0,-4.462108498E0,8.499847133E0,1.162060548E1
5.017934917E0,-1.700823354E1,-9.017149717E0,-6.752050055E0,2.040047002E1
5.027950917E0,-3.394993044E1,-2.019626883E1,-1.904341074E1,4.385360355E1
5.037966917E0,-4.424752742E1,-3.308589674E1,3.818725326E0,5.538143108E1
5.047982917E0,-2.797596587E1,-2.891512226E1,1.860291075E1,4.432614634E1
5.057999917E0,-3.726701846E0,-9.764750737E0,2.528282254E0,1.075317975E1
5.068015917E0,4.043025103E0,-3.755524526E0,-1.017160439E0,5.611116806E0
5.078031917E0,8.034216979E0,-2.826220111E0,5.408079232E0,1.008878008E1
5.088047917E0,8.161500338E0,-3.486096523E0,2.429218141E0,9.201307381E0
5.098063917E0,5.565289811E0,-5.431928270E0,2.348366059E-1,7.780324135E0
5.108079917E0,7.893448770E-1,-9.216086027E0,1.362935244E0,9.349700502E0
5.118095917E0,-6.369897675E0,-1.468351859E1,3.566684604E0,1.639824849E1
5.128111917E0,-1.339116933E1,-2.017106733E1,3.985227131E0,2.453726571E1
5.138127917E0,-1.754849405E1,-2.138428038E1,1.904786632E0,2.772842049E1
5.148143917E0,-1.880552028E1,-1.892174422E1,9.425004119E-1,2.669397506E1
5.158159917E0,-1.610579533E1,-1.536137227E1,1.084423007E0,2.228327566E1
5.168175917E0,-1.199245570E1,-1.303201931E1,1.924853691E0,1.781453291E1
5.178191917E0,-9.062160999E0,-1.209109823E1,1.378399229E0,1.517291675E1
5.188207917E0,-7.378494428E0,-1.043739338E1,-6.402036019E-1,1.279809443E1
5.198223917E0,-5.600812815E0,-8.995234938E0,-3.144590478E0,1.105313553E1
5.208239917E0,-3.542267216E0,-7.792551556E0,-3.140216176E0,9.117701158E0
5.218255917E0,-1.475806825E0,-5.646261469E0,-3.112813200E0,6.614218047E0
5.228271917E0,3.405693215E-1,-2.987892700E0,-3.381239575E0,4.525071415E0
5.238287917E0,1.467869230E0,-4.524663180E-1,-2.674835697E0,3.084495397E0
5.248303917E0,2.742879746E0,1.843887296E0,-1.539863073E0,3.646160713E0
5.258319917E0,4.077310252E0,4.164529660E0,1.666203569E-1,5.830568456E0
5.268336917E0,4.314026007E0,6.181015652E0,1.498371084E0,7.685108379E0
5.278352917E0,3.873834164E0,7.752008132E0,1.853771868E0,8.862092944E0
5.288368917E0,2.628127554E0,9.133931478E0,2.100909846E0,9.733939637E0
5.298384917E0,9.830999690E-1,1.004493645E1,2.247341814E0,1.034010537E1
5.308400917E0,-4.963777381E-1,1.061258882E1,1.963914261E0,1.080418398E1
5.318416917E0,-1.170811964E0,1.100772728E1,1.206952142E0,1.113542069E1
5.328432917E0,2.068972939E-1,1.106100945E1,-3.078100035E-1,1.106722565E1
5.338448917E0,1.660585856E0,1.065284573E1,-2.184094675E0,1.100049713E1
5.348464917E0,3.483296292E0,1.032437488E1,-3.499681944E0,1.144438043E1
5.358480917E0,5.414398903E0,1.013694823E1,-3.962357208E0,1.215622102E1
5.368496917E0,6.858652983E0,9.591765540E0,-3.759809951E0,1.237656082E1
5.378512917E0,8.315470975E0,9.215703034E0,-2.909604914E0,1.274919765E1
5.388528917E0,9.350709981E0,9.149059979E0,-2.475628954E0,1.331427108E1
5.398544917E0,1.008228612E1,9.249788793E0,-2.645639673E0,1.393594257E1
5.408560917E0,1.053566987E1,9.492108520E0,-3.302745967E0,1.456051492E1
5.418576917E0,1.060125926E1,9.768744970E0,-4.686600648E0,1.515847294E1
5.428592917E0,1.044731376E1,1.019303706E1,-5.412196841E0,1.556715273E1
5.438608917E0,1.051887666E1,1.024170929E1,-4.229815577E0,1.527843955E1
5.448624917E0,1.046540037E1,1.054790224E1,-2.924998002E0,1.514392485E1
5.458640917E0,1.010737535E1,1.080580071E1,-1.826459378E0,1.490839761E1
5.468656917E0,9.239396537E0,1.090131848E1,-9.406474292E-1,1.432096402E1
5.478672917E0,7.728004142E0,1.024672503E1,-7.788023472E-1,1.285783632E1
5.488688917E0,6.222861836E0,9.209548255E0,-9.773077172E-1,1.115772911E1
5.498704917E0,5.343783249E0,8.073527809E0,-1.201513062E0,9.756100878E0
5.508721917E0,4.815853935E0,7.223674775E0,-1.640426265E0,8.835435740E0
5.518737917E0,4.235975618E0,6.650856387E0,-2.356882237E0,8.229961968E0
5.528753917E0,3.939897761E0,6.250413331E0,-1.859988043E0,7.619056155E0
5.538769917E0,3.785604942E0,5.972018623E0,-4.011574392E-1,7.082142226E0
5.548785917E0,3.589972309E0,5.668746936E0,1.080188307E0,6.796278378E0
5.558801917E0,3.397965535E0,5.046898475E0,1.309978766E0,6.223616181E0
5.568817917E0,3.544103826E0,4.450439794E0,1.015325290E0,5.779097831E0
5.578833917E0,3.893349246E0,3.998143630E0,1.761734501E0,5.852096145E0
5.588849917E0,4.049365824E0,3.328300638E0,3.095560405E0,6.087482479E0
5.598865917E0,3.727713414E0,2.176925989E0,2.726618639E0,5.105810735E0
5.608881917E0,2.539494874E0,1.944426076E0,-3.511030805E0,4.749438314E0
5.618897917E0,2.047362215E0,2.683842748E0,-7.473342698E0,8.200338713E0
5.628913917E0,1.605347210E0,1.582299240E0,-6.738721620E-1,2.352639845E0
5.638929917E0,-7.541399610E-1,-1.634844074E0,4.758851184E0,5.088035654E0
5.648945917E0,-3.048491489E0,-5.021205810E0,-2.290596446E0,6.304969486E0
5.658961167E0,-5.825873315E0,-1.069270386E1,-4.482232567E0,1.297555874E1
5.668977167E0,-1.346809296E1,-2.527215722E1,4.275510398E0,2.895429929E1
5.678993167E0,-2.565648768E1,-3.860667170E1,7.202592639E0,4.691063633E1
5.689009167E0,-3.505666102E1,-3.140154780E1,2.137493536E0,4.711258393E1
5.699025167E0,-2.979459495E1,-1.565088663E1,3.594080271E0,3.384649987E1
5.709041167E0,-1.717565687E1,-1.047418055E1,4.751804119E0,2.067102536E1
5.719057167E0,-7.946891736E0,-8.978713630E0,1.211673184E0,1.205149529E1
5.729073167E0,-1.640445707E0,-6.558486752E0,3.730869157E0,7.721670497E0
5.739090167E0,1.622063230E0,-3.427920821E0,6.634970672E0,7.642288014E0
5.749106167E0,4.912750484E0,-5.837164289E-1,2.526361736E0,5.555028876E0
5.759122167E0,7.283242700E0,2.717549608E0,4.231768839E-1,7.785228242E0
5.769138167E0,8.337686301E0,5.505423678E0,2.483407212E0,1.029533944E1
5.779154167E0,7.898965033E0,7.314721186E0,2.113361931E0,1.097110265E1
5.789170167E0,5.775266833E0,7.670262887E0,1.866347913E0,9.781098829E0
5.799186167E0,3.211558054E0,5.693878269E0,4.022174517E0,7.675431110E0
5.809202167E0,-9.584457690E-1,1.667631751E0,4.466184592E0,4.862758349E0
5.819218167E0,-5.259472831E0,-3.455585167E0,4.126077785E0,7.525133965E0
5.829234167E0,-1.302282047E1,-1.260468725E1,5.406848393E0,1.891311722E1
5.839250167E0,-2.504026600E1,-2.352655752E1,1.569931794E0,3.439445473E1
5.849266167E0,-3.014925898E1,-2.814704604E1,-3.097732061E0,4.136218033E1
5.859282167E0,-2.036024113E1,-2.155941618E1,1.282925892E0,2.968153877E1
5.869298167E0,-9.711132939E0,-1.180548046E1,2.260149409E0,1.545262913E1
5.879314167E0,-6.284088031E0,-6.447535835E0,2.175593993E-1,9.005987609E0
5.889330167E0,-4.129400173E0,-4.853473751E0,4.453929412E-1,6.387998756E0
5.899346167E0,-2.786549676E0,-4.073418930E0,-1.135166752E-1,4.936647335E0
5.909362167E0,-2.018124967E0,-3.310467215E0,-1.782018492E0,4.267037787E0
5.919378167E0,-2.277214508E0,-3.558255258E0,-3.340845255E0,5.385919922E0
5.929394167E0,-2.811528397E0,-4.822367148E0,-2.984343440E0,6.329788512E0
5.939410167E0,-3.461079796E0,-5.676262363E0,-1.991526714E0,6.940115735E0
5.949426167E0,-2.256551617E0,-4.212163417E0,-4.925900580E-1,4.803851665E0
5.959442167E0,5.510293239E-1,4.344539702E-1,8.804450816E-1,1.125862829E0
5.969459167E0,2.118674857E0,4.907668085E0,6.824704926E-1,5.388854716E0
5.979475167E0,2.452756108E0,7.346317200E0,-7.739428724E-1,7.783532392E0
5.989491167E0,2.104266148E0,8.653049446E0,-2.138669557E0,9.158444639E0
5.999507167E0,1.994506309E0,8.933380752E0,-2.566180982E0,9.506241734E0
6.009523167E0,2.678467988E0,9.010842910E0,-1.330812834E0,9.494237385E0
6.019539167E0,3.573551574E0,9.337670690E0,1.511142719E0,1.011167232E1
6.029555167E0,4.018209520E0,9.792632600E0,4.762234383E0,1.160691765E1
6.039571167E0,3.820382427E0,1.045881056E1,6.177607895E0,1.273361219E1
6.049587167E0,3.162097626E0,1.067123639E1,2.985857284E0,1.152343227E1
6.059603167E0,3.583539203E0,1.015172765E1,-1.687408204E0,1.089709475E1
6.069619167E0,4.690684928E0,9.715838778E0,-3.382194425E0,1.130660371E1
6.079635167E0,5.446098998E0,9.619130509E0,-2.671251939E0,1.137203821E1
6.089651167E0,6.172728394E0,9.147731491E0,-1.883609186E0,1.119515747E1
6.099667167E0,6.966873250E0,9.130433673E0,-1.459414887E0,1.157722047E1
6.109683167E0,7.620605409E0,9.163221935E0,-1.144235930E0,1.197278326E1
6.119699167E0,8.295629618E0,9.247718879E0,-1.271452047E0,1.248816902E1
6.129715167E0,8.886164485E0,9.417680481E0,-1.806017073E0,1.307357344E1
6.139731167E0,9.229828738E0,9.659065822E0,-2.001854651E0,1.350906041E1
6.149747167E0,9.402642027E0,9.854686761E0,-2.127198489E0,1.378584425E1
6.159763167E0,9.121993217E0,9.904451244E0,-2.274647580E0,1.365587552E1
6.169779167E0,8.217975086E0,9.778482338E0,-2.168864433E0,1.295599492E1
6.179795167E0,6.601398883E0,9.414382651E0,-1.629514191E0,1.161311261E1
6.189811167E0,4.856640603E0,8.849604769E0,-1.048813756E0,1.014901339E1
6.199827167E0,3.402807614E0,8.197665367E0,-6.774642527E-1,8.901672593E0
6.209844167E0,2.293661264E0,7.587470992E0,-5.829087822E-1,7.947979661E0
6.219859167E0,1.876723505E0,6.702545189E0,-5.278110538E-1,6.980314293E0
6.229876167E0,2.105469798E0,5.891129996E0,-3.675692783E-1,6.266859092E0
6.239892167E0,2.180668499E0,5.618778970E0,6.815032169E-2,6.027490082E0
6.249908167E0,2.276056759E0,5.448274162E0,7.157921666E-1,5.947813391E0
6.259924167E0,2.817800705E0,5.560031995E0,9.015166926E-1,6.298149644E0
6.269940167E0,3.601833971E0,6.180917419E0,5.883883542E-1,7.177962730E0
6.279956167E0,4.044041349E0,6.705813782E0,3.893912333E-1,7.840525139E0
6.289972167E0,4.060689542E0,6.907821634E0,3.670881987E-2,8.013023576E0
6.299988167E0,3.836048872E0,6.796698225E0,-1.004739929E0,7.868918606E0
6.310004167E0,3.270655863E0,6.423005596E0,-1.941386694E0,7.464661610E0
6.320020167E0,2.881911916E0,5.576714101E0,-1.106800447E0,6.374179452E0
6.330036167E0,2.451372657E0,4.159111045E0,3.908392963E0,6.211518988E0
6.340052167E0,1.762431489E0,1.525339174E0,6.675044564E0,7.070293083E0
6.350068167E0,9.700074685E-1,1.813069546E-1,-2.291641928E0,2.495077038E0
6.360084167E0,3.595827127E-1,3.227206957E-1,-7.997984707E0,8.012565616E0
6.370100167E0,-1.492598274E0,-3.822651731E0,9.665404204E0,1.050050257E1
6.380116167E0,-3.304973171E0,-6.784534262E0,8.372873676E-1,7.593010138E0
6.390132167E0,-6.462411152E0,-7.938448942E0,-1.475854305E1,1.796096663E1
6.400148167E0,-1.040419289E1,-1.291919143E1,6.999707705E-1,1.660249066E1
6.410164167E0,-1.326130033E1,-1.734505421E1,8.121870250E0,2.329544523E1
6.420180167E0,-1.165201560E1,-1.221563106E1,-1.513501486E0,1.694938927E1
6.430196167E0,-1.011182275E1,-3.077674942E0,-3.323595384E0,1.108004190E1
6.440212167E0,-6.234842781E0,-1.001086004E0,2.071131439E0,6.645677025E0
6.450228167E0,-3.177165316E0,-1.746386729E0,9.190665257E-1,3.740177714E0
6.460244167E0,-4.796699041E-1,-2.685773499E0,1.218247501E0,2.987907207E0
6.470261167E0,6.459968770E-1,-2.197195362E0,1.974386625E0,3.023769496E0
6.480277167E0,-1.001055014E-1,-1.575959104E0,9.903350213E-1,1.863982742E0
6.490293167E0,-4.015235626E0,-3.130439047E0,3.588355262E0,6.228808814E0
6.500309167E0,-9.429103017E0,-6.422241949E0,4.431622285E0,1.223897265E1
6.510325167E0,-1.398401618E1,-9.299757929E0,2.520033002E0,1.698201320E1
6.520341167E0,-1.532929678E1,-1.028045995E1,2.060805256E0,1.857207891E1
6.530357167E0,-1.208371320E1,-8.123827897E0,3.270293335E0,1.492338845E1
6.540373167E0,-5.911167235E0,-5.345647926E0,3.141192953E0,8.566501211E0
6.550389167E0,-1.932649784E0,-4.034565644E0,3.450417106E0,5.649622406E0
6.560405167E0,-1.656415622E0,-3.989581552E0,3.786871449E0,5.744638287E0
6.570421167E0,-2.933867351E0,-5.394491472E0,3.598298160E0,7.117293413E0
6.580437167E0,-4.716851218E0,-7.327589153E0,3.558511950E0,9.413036466E0
6.590453167E0,-6.884528081E0,-8.383484033E0,2.421843633E0,1.111507346E1
6.600469167E0,-6.866354350E0,-8.756490784E0,2.530089336E0,1.141158643E1
6.610485167E0,-7.144924475E0,-8.270833331E0,2.116633594E0,1.113268914E1
6.620501167E0,-7.114531233E0,-8.179067128E0,2.701602497E0,1.117194476E1
6.630517167E0,-6.810614013E0,-8.046351705E0,2.262505252E0,1.078179804E1
6.640533167E0,-6.612911466E0,-8.016343210E0,1.740031098E0,1.053660594E1
6.650549167E0,-6.557388060E0,-7.914601073E0,2.185846501E0,1.050800520E1
6.660565042E0,-6.072368538E0,-7.509202502E0,1.449524760E0,9.765393177E0
6.670581042E0,-6.282542612E0,-7.451022706E0,1.819838283E0,9.914630221E0
6.680597042E0,-6.353945886E0,-7.622441434E0,1.715478348E0,1.007060612E1
6.690613042E0,-6.315943662E0,-7.830586524E0,1.088477028E0,1.011899263E1
6.700629042E0,-5.788952826E0,-8.496287933E0,7.180067995E-1,1.030603790E1
6.710646042E0,-4.395039765E0,-9.036874714E0,-7.461468172E-1,1.007661720E1
6.720662042E0,-2.684351456E0,-8.957148514E0,-1.869376479E0,9.535765342E0
6.730678042E0,-8.369055444E-1,-7.905493450E0,-3.512477406E0,8.691072149E0
6.740694042E0,1.132874644E0,-5.802286817E0,-4.135056477E0,7.214473600E0
6.750710042E0,2.626538866E0,-2.930172495E0,-3.832945170E0,5.493276430E0
6.760726042E0,3.388592448E0,-2.699226773E-1,-3.099931491E0,4.600542607E0
6.770742042E0,3.563758072E0,1.979241568E0,-1.773465770E0,4.445553916E0
6.780758042E0,3.529460644E0,4.171414756E0,-8.281756514E-1,5.526632647E0
6.790774042E0,3.719351311E0,6.410064538E0,-4.683227974E-1,7.425754359E0
6.800790042E0,3.925282645E0,8.246883135E0,-6.072710600E-1,9.153562336E0
6.810806042E0,3.987267224E0,9.737269993E0,-1.174848881E0,1.058739801E1
6.820822042E0,3.884512349E0,1.056490361E1,-1.800517036E0,1.139949499E1
6.830838042E0,4.328424191E0,1.111292337E1,-1.583987916E0,1.203084949E1
6.840854042E0,5.104413443E0,1.173073316E1,-2.308086053E-1,1.279524950E1
6.850870042E0,5.454701421E0,1.244305734E1,1.227044637E0,1.364144722E1
6.860886042E0,5.243774811E0,1.263083366E1,2.183643270E0,1.384931157E1
6.870902042E0,4.565886635E0,1.259234377E1,8.953423253E-1,1.342445829E1
6.880918042E0,4.107830379E0,1.244376018E1,-1.185283238E0,1.315774806E1
6.890934042E0,4.599661322E0,1.152734478E1,-2.062894759E0,1.258141871E1
6.900950042E0,5.564396356E0,1.110321348E1,-2.575667505E0,1.268376598E1
6.910966042E0,6.502603158E0,1.093014058E1,-2.936721961E0,1.305282179E1
6.920982042E0,7.327855201E0,1.044686236E1,-3.254400311E0,1.316911221E1
6.930998042E0,8.217279852E0,1.027899932E1,-3.655856104E0,1.365821361E1
6.941014042E0,8.704711350E0,1.027757143E1,-3.515930187E0,1.391985055E1
6.951030042E0,9.152092929E0,1.035964295E1,-2.491940639E0,1.404609466E1
6.961046042E0,9.712124042E0,1.042588021E1,-2.116222535E0,1.440495503E1
6.971062042E0,9.979335365E0,1.041763797E1,-2.937489116E0,1.472219948E1
6.981079042E0,9.560956560E0,1.016751397E1,-4.074012715E0,1.453918190E1
6.991095042E0,8.302387245E0,8.672152884E0,-4.487645920E0,1.281697451E1
7.001111042E0,7.136405082E0,6.523036838E0,-4.254070997E0,1.056292607E1
7.011127042E0,6.275545249E0,5.502940366E0,-3.729830984E0,9.142016189E0
7.021143042E0,5.221356586E0,4.991625330E0,-3.156406531E0,7.883006421E0
7.031159042E0,4.779224052E0,4.735547690E0,-2.508349096E0,7.180404561E0
7.041175042E0,4.505344564E0,4.528689573E0,-1.915847810E0,6.669155248E0
7.051191042E0,4.249570395E0,4.206522608E0,-5.947357991E-1,6.008942641E0
7.061207042E0,3.885528595E0,3.414133671E0,1.835474030E0,5.488406518E0
7.071223042E0,3.502907853E0,1.713882642E0,4.773435894E0,6.163882492E0
7.081239042E0,2.497348729E0,-5.155150902E-1,3.716590841E0,4.507277888E0
7.091255042E0,1.857645795E0,-9.348300344E-1,2.789618880E-1,2.098231357E0
7.101271042E0,1.106021891E0,-1.500882609E0,6.577070957E-1,1.976995613E0
7.111287042E0,-7.353282988E-1,-1.991922424E0,-1.050028369E0,2.368759639E0
7.121303042E0,-4.043660696E0,-2.776624612E0,6.632254055E-1,4.949818582E0
7.131319042E0,-7.122644244E0,-3.697307893E0,4.218367021E0,9.066243269E0
7.141335042E0,-9.757329451E0,-4.010836181E0,2.960883826E0,1.095714917E1
7.151351042E0,-1.360919329E1,-5.191154548E0,-7.631265467E-1,1.458562956E1
7.161367042E0,-1.852255714E1,-9.169453313E0,1.582754154E0,2.072846130E1
7.171383042E0,-1.994783701E1,-1.531705505E1,3.054214743E0,2.533488908E1
7.181399042E0,-1.429223461E1,-1.723890386E1,-9.448992321E-1,2.241295632E1
7.191415042E0,-1.055237653E1,-1.105500670E1,8.124188671E-1,1.530443883E1
7.201431042E0,-8.126221163E0,-4.073382093E0,3.581911630E0,9.770261152E0
7.211447042E0,-3.021204287E0,-1.354405764E0,2.629671511E0,4.228151201E0
7.221463042E0,3.243737036E-1,-4.661470485E-1,2.938615582E0,2.992987289E0
7.231479042E0,2.255823639E0,-5.905103087E-3,1.795768805E0,2.883324602E0
7.241496042E0,3.287710437E0,6.547706240E-1,8.578230813E-1,3.460292607E0
7.251512042E0,3.912291886E0,1.135138101E0,1.155103419E0,4.234244941E0
7.261528042E0,2.720522332E0,7.042836767E-1,1.701697630E-1,2.815353442E0
7.271544042E0,-1.695908886E-1,-7.945904142E-1,-6.218484610E-1,1.023147352E0
7.281560042E0,-3.871542640E0,-2.158974452E0,-5.350029829E-1,4.465001824E0
7.291576042E0,-7.860902583E0,-3.427641324E0,7.995593780E-1,8.612886256E0
7.301592042E0,-1.192723118E1,-4.729898111E0,2.109109982E0,1.300304290E1
7.311608042E0,-1.502613619E1,-5.637825691E0,3.112309462E0,1.634797595E1
7.321624042E0,-1.561888481E1,-5.787757071E0,4.028105640E0,1.713689966E1
7.331640042E0,-1.353838584E1,-5.688399428E0,3.671817541E0,1.513697537E1
7.341656042E0,-1.032206172E1,-5.689470638E0,3.680739515E0,1.234758591E1
7.351672042E0,-6.943776748E0,-5.779242940E0,3.400266414E0,9.652849122E0
7.361688042E0,-4.442043777E0,-5.657177635E0,2.653044879E0,7.666424124E0
7.371704042E0,-3.372405016E0,-6.101372482E0,2.485957476E0,7.401340847E0
7.381720042E0,-3.351547413E0,-6.838794084E0,1.765883101E0,7.817948434E0
7.391736042E0,-4.158187770E0,-7.724301685E0,1.614387590E0,8.919731461E0
7.401752042E0,-5.644884449E0,-8.876349349E0,1.072737200E0,1.057379134E1
7.411768042E0,-7.236391885E0,-9.583196445E0,8.194916591E-1,1.203638601E1
7.421784042E0,-8.375165784E0,-9.313943859E0,5.724991304E-1,1.253876818E1
7.431800042E0,-8.649525914E0,-9.447087298E0,1.266085911E-1,1.280928517E1
7.441816042E0,-6.695299904E0,-8.278770341E0,-1.777726051E-1,1.064878783E1
7.451832042E0,-3.424133579E0,-6.157902194E0,3.757470480E-1,7.055893709E0
7.461848042E0,-1.489527317E0,-4.537879057E0,1.018891945E-1,4.777176925E0
7.471864042E0,1.735482842E-1,-2.878396570E0,-4.503627822E-1,2.918580555E0
7.481880042E0,2.142743751E0,-8.351116186E-1,6.908248481E-1,2.401249918E0
7.491897042E0,2.845441078E0,8.851070666E-1,1.380871139E0,3.284319496E0
7.501913042E0,3.249166760E0,2.868261006E0,1.039387606E0,4.456942050E0
7.511929042E0,3.515755940E0,5.010210121E0,4.850680536E-1,6.139872662E0
7.521945042E0,3.656227695E0,6.950319198E0,-3.934076858E-1,7.863186855E0
7.531961042E0,3.918899825E0,8.431960959E0,-1.589340750E0,9.433013595E0
7.541977042E0,4.664359009E0,9.711989556E0,-2.694823527E0,1.110590203E1
7.551993042E0,5.538635278E0,1.073253276E1,-2.997128962E0,1.244373425E1
7.562009042E0,6.179624015E0,1.133979300E1,-2.529807208E0,1.315973338E1
7.572025042E0,6.703177273E0,1.196854293E1,-1.775204439E0,1.383220720E1
7.582041042E0,6.719361781E0,1.246946571E1,-1.089436848E0,1.420648691E1
7.592057042E0,6.416569566E0,1.221579946E1,-1.006281255E0,1.383512643E1
7.602073042E0,6.123880754E0,1.218838303E1,-1.697912142E0,1.374559937E1
7.612089042E0,5.681120229E0,1.207972773E1,-2.988774460E0,1.367946351E1
7.622105042E0,5.218637046E0,1.177041470E1,-3.765757738E0,1.341483381E1
7.632121042E0,5.313536772E0,1.187816719E1,-3.705407456E0,1.352976620E1
7.642137042E0,5.526781218E0,1.170844240E1,-3.348060134E0,1.337319860E1
7.652153042E0,5.855844973E0,1.148280888E1,-2.911238042E0,1.321442874E1
7.662170167E0,6.028290473E0,1.133550465E1,-2.274518357E0,1.303868803E1
7.672186167E0,6.165207705E0,1.124398871E1,-1.729783268E0,1.293944428E1
7.682202167E0,6.276004255E0,1.119396578E1,-1.639526232E0,1.293758654E1
7.692218167E0,5.841816918E0,1.102467134E1,-1.706097659E0,1.259289372E1
7.702234167E0,5.077842525E0,9.116189271E0,-1.896305246E0,1.060591180E1
7.712250167E0,4.017845238E0,7.328926411E0,-2.034457410E0,8.602049736E0
7.722266167E0,3.279580468E0,6.561295170E0,-1.031839435E0,7.407491814E0
7.732282167E0,3.164552872E0,6.080138903E0,3.560632735E-1,6.863618945E0
7.742298167E0,3.528883524E0,5.713914338E0,3.003106570E-1,6.722501207E0
7.752315167E0,3.742609196E0,5.229384229E0,4.032926962E-1,6.443308778E0
7.762331167E0,3.716211357E0,4.521715014E0,1.693091698E0,6.092839487E0
7.772347167E0,3.608676968E0,3.839955981E0,1.815036842E0,5.573344609E0
7.782363167E0,3.910284537E0,3.207157440E0,1.099434710E0,5.175416958E0
7.792379167E0,5.049478852E0,2.428296036E0,3.439165601E-1,5.613567218E0
7.802395167E0,6.278899212E0,1.423353208E0,1.133898199E0,6.537295679E0
7.812411167E0,6.061706141E0,1.749527854E-1,-9.888226390E-3,6.064238418E0
7.822427167E0,3.826850617E0,-5.136849117E-1,-6.663424392E0,7.701290961E0
7.832443167E0,1.848605415E0,-1.291244141E0,-6.255558296E0,6.649561114E0
7.842459167E0,9.505280542E-1,-3.232664164E0,4.969922805E0,6.004477818E0
7.852475167E0,1.917185068E-1,-4.924754818E0,8.984310000E0,1.024733098E1
7.862491167E0,-2.850800636E0,-6.209541294E0,4.763101232E0,8.329021593E0
7.872507167E0,-7.649340965E0,-9.043791971E0,3.496458374E0,1.235021504E1
7.882523167E0,-1.396670024E1,-1.517844330E1,2.135672713E0,2.073680193E1
7.892539167E0,-2.262660087E1,-2.160513907E1,1.664087754E0,3.132912844E1
7.902555167E0,-2.779610551E1,-2.445049712E1,7.273000717E-2,3.701966478E1
7.912571167E0,-1.712142160E1,-1.522543152E1,-2.353662175E-1,2.291314557E1
7.922587167E0,-4.110957470E0,-5.938733348E0,-5.978435943E-1,7.247478325E0
7.932603167E0,2.264435418E0,-3.220383257E-1,-1.300430117E0,2.631063461E0
7.942619167E0,4.543195930E0,5.145493641E0,2.396995890E-1,6.868346960E0
7.952635167E0,5.603391438E0,7.874854624E0,2.508280098E0,9.985128943E0
7.962651167E0,4.929157187E0,9.435705693E0,1.716817360E0,1.078316254E1
7.972667167E0,1.143854545E0,8.753838487E0,1.611499358E0,8.974130691E0
7.982683167E0,-3.354048268E0,5.196090767E0,2.909544103E0,6.834796700E0
7.992700167E0,-6.313561506E0,3.044204018E0,2.496778625E0,7.440573936E0
8.002716167E0,-6.803516663E0,9.197649756E-1,3.408794578E0,7.665095372E0
8.012732167E0,-7.738962994E0,-7.367939034E-1,3.668341079E0,8.595995565E0
8.022748167E0,-8.491649337E0,-1.659963128E0,2.338385155E0,8.962791484E0
8.032764167E0,-9.344458138E0,-2.018108010E0,2.333561202E0,9.840587672E0
8.042780167E0,-1.063946847E1,-2.555139685E0,3.757226651E0,1.156908727E1
8.052796167E0,-1.063191270E1,-2.777685882E0,3.800046980E0,1.162727240E1
8.062812167E0,-1.025596012E1,-2.803270374E0,3.988389597E0,1.135562831E1
8.072828167E0,-8.317714552E0,-2.499840812E0,4.848168280E0,9.946774106E0
8.082844167E0,-6.306096366E0,-2.269665168E0,3.634907869E0,7.624354830E0
8.092860167E0,-5.534765591E0,-2.512233401E0,4.627699598E0,7.639407725E0
8.102876167E0,-4.833820090E0,-3.289643526E0,4.815568006E0,7.574778308E0
8.112892167E0,-5.774603759E0,-5.116040631E0,3.796762307E0,8.598565248E0
8.122908167E0,-7.092076755E0,-7.660509147E0,4.135152371E0,1.122855459E1
8.132924167E0,-7.706874059E0,-9.748287317E0,2.956628807E0,1.277367086E1
8.142940167E0,-7.418888748E0,-1.045928184E1,1.522255937E0,1.291331677E1
8.152956167E0,-5.811694402E0,-1.060297366E1,4.305690801E-1,1.209893516E1
8.162972167E0,-4.168915656E0,-1.021068162E1,-5.666022134E-1,1.104350103E1
8.172988167E0,-3.943573905E0,-9.676550751E0,-7.408634193E-1,1.047550897E1
8.183004167E0,-3.696672301E0,-9.673807238E0,-1.964951558E0,1.054082384E1
8.193020167E0,-4.268983151E0,-9.880068355E0,-2.036474699E0,1.095386676E1
8.203036167E0,-4.148586057E0,-9.093849399E0,-1.450745367E0,1.010017452E1
8.213052167E0,-3.091055126E0,-7.384409471E0,-1.234881806E0,8.099941858E0
8.223069167E0,-1.258976866E0,-4.978636910E0,-5.331685652E-1,5.162956222E0
8.233085167E0,5.620495713E-1,-1.148460982E0,2.204018770E-1,1.297474214E0
8.243101167E0,2.324985090E0,2.226852440E0,7.388617712E-1,3.303081013E0
8.253117167E0,3.632048873E0,4.554198051E0,-3.642993692E-1,5.836541179E0
8.263133167E0,3.717114751E0,6.174174410E0,-2.258487923E0,7.552359858E0
8.273149167E0,3.776162859E0,7.200389408E0,-2.880052209E0,8.625526900E0
8.283165167E0,4.145646077E0,7.871817580E0,-2.427306102E0,9.221914569E0
8.293181167E0,4.336144854E0,8.525024074E0,-1.642067871E0,9.704358534E0
8.303197167E0,4.520166671E0,8.996624236E0,-3.554651034E-1,1.007459725E1
8.313213167E0,4.680884410E0,9.408458253E0,7.283537400E-1,1.053376783E1
8.323229167E0,5.027012680E0,9.697246971E0,1.056245567E0,1.097374640E1
8.333245167E0,5.145354477E0,1.001098868E1,9.150126511E-1,1.129299851E1
8.343261167E0,4.432052055E0,1.030464989E1,2.940826415E-1,1.122120222E1
8.353277167E0,3.725843475E0,1.022377237E1,-9.721177286E-1,1.092485441E1
8.363293167E0,4.374642922E0,1.003291457E1,-2.300319635E0,1.118429014E1
8.373309167E0,5.520669708E0,1.014506066E1,-2.814292375E0,1.188782114E1
8.383325167E0,6.382989006E0,1.026437076E1,-2.656188927E0,1.237558868E1
8.393341167E0,7.166215357E0,1.029602290E1,-2.082659078E0,1.271613931E1
8.403357167E0,7.915695671E0,1.066455303E1,-1.251167325E0,1.334002807E1
8.413373167E0,8.360664690E0,1.081426630E1,-6.034868883E-1,1.368258989E1
8.423389167E0,8.859702911E0,1.099024995E1,-3.861952914E-1,1.412193601E1
8.433405167E0,8.960786067E0,1.097164996E1,-7.527114862E-1,1.418588610E1
8.443421167E0,8.544499395E0,1.069396803E1,-1.393491916E0,1.375904218E1
8.453437167E0,8.016232697E0,1.069705536E1,-2.187880747E0,1.354525017E1
8.463454167E0,7.166867906E0,1.073368349E1,-2.582913374E0,1.316234775E1
8.473470167E0,5.926004544E0,1.055455637E1,-2.426918432E0,1.234528749E1
8.483486167E0,4.637470588E0,1.036050834E1,-2.529375391E0,1.162944566E1
8.493502167E0,3.736597089E0,1.003627789E1,-2.602312682E0,1.102093748E1
8.503518167E0,3.948973809E0,8.960761508E0,-2.407184371E0,1.008385728E1
8.513534167E0,3.947709641E0,8.178089474E0,-2.231971969E0,9.351323849E0
8.523550167E0,3.595993772E0,7.791425382E0,-2.064156588E0,8.825997004E0
8.533566167E0,3.421145067E0,7.215950603E0,-1.819228418E0,8.190468163E0
8.543582167E0,3.747340763E0,6.548799670E0,-1.421664532E0,7.677920939E0
8.553598167E0,4.226860979E0,5.922584508E0,-6.187950450E-1,7.302483707E0
8.563614167E0,4.410217967E0,5.381293137E0,4.593555075E-1,6.972757405E0
8.573630167E0,4.184589702E0,4.752880007E0,7.586610281E-1,6.377791616E0
8.583646167E0,3.707023627E0,3.960800387E0,4.088805878E-1,5.440326021E0
8.593662167E0,2.570425476E0,2.759494025E0,5.102648168E0,6.344991153E0
8.603678167E0,-1.931563371E-1,-8.517311597E-1,2.042543291E1,2.044409609E1
8.613694167E0,-3.553219635E0,-4.407990178E0,8.079206625E0,9.865562674E0
8.623710167E0,-5.189472304E0,-4.915875236E0,-1.963037296E1,2.089133779E1
8.633726167E0,-5.325631737E0,-9.508238649E0,-2.612341826E0,1.120684101E1
8.643742167E0,-3.613798544E0,-1.045946428E1,-3.915046217E0,1.173829288E1
8.653758167E0,-3.315449043E0,-8.435562844E0,-1.145920484E1,1.461041746E1
8.663773542E0,-7.108627299E0,-1.147889358E1,8.348853314E0,1.587453721E1
8.673789542E0,-7.849496419E0,-1.473081555E1,6.381903178E0,1.787009258E1
8.683805542E0,-5.403443559E0,-1.538347474E1,-3.036412895E0,1.658518317E1
8.693821542E0,-6.313525838E0,-9.060046061E0,-7.564458105E-1,1.106875121E1
8.703838542E0,-7.061960671E0,-3.033015663E0,1.894361047E0,7.915748626E0
8.713854542E0,-8.574475147E0,-4.232182530E0,7.773318894E0,1.232304669E1
8.723870542E0,-9.495343784E0,-5.702090099E0,3.336471537E0,1.156751604E1
8.733886542E0,-7.522831192E0,-6.478456496E0,-3.722337484E-2,9.927979316E0
8.743902542E0,-6.916034049E0,-6.265069962E0,1.729732690E0,9.490764130E0
8.753918542E0,-7.814081588E0,-3.894894665E0,1.054357940E0,8.794415625E0
8.763934542E0,-6.606305282E0,-1.245007283E0,3.040694227E0,7.378288012E0
8.773950542E0,-5.485538467E0,5.242177936E-1,8.046447015E-1,5.568966660E0
8.783966542E0,-5.336737939E0,2.600292176E0,7.669702139E-1,5.985861219E0
8.793982542E0,-6.183587843E0,3.527958202E0,2.626530679E0,7.588274579E0
8.803998542E0,-6.901225975E0,3.142888061E0,2.044197117E0,7.853878480E0
8.814014542E0,-7.040944024E0,1.645186045E0,2.397443202E0,7.617694124E0
8.824030542E0,-7.419465283E0,-4.166062215E-1,2.750413591E0,7.923812261E0
8.834046542E0,-7.955135141E0,-2.366887992E0,2.512788009E0,8.671818579E0
8.844062542E0,-7.641460673E0,-4.110693176E0,2.288004667E0,8.973554756E0
8.854078542E0,-7.050229402E0,-5.377917539E0,2.641831381E0,9.252405348E0
8.864094542E0,-7.639379649E0,-5.912081739E0,2.616403887E0,1.000791693E1
8.874110542E0,-7.840228583E0,-6.887278027E0,4.345816734E0,1.130441975E1
8.884126542E0,-6.802071816E0,-7.899401820E0,3.599349489E0,1.102832929E1
8.894142542E0,-8.762757245E0,-8.994896969E0,4.150017748E0,1.322560900E1
8.904158542E0,-9.604265133E0,-9.896162231E0,4.124521841E0,1.439401320E1
8.914174542E0,-9.391411865E0,-1.049572988E1,2.460843392E0,1.429736733E1
8.924190542E0,-1.029813024E1,-1.161187213E1,1.934236134E0,1.564059878E1
8.934207542E0,-9.195397993E0,-1.199034953E1,9.613182136E-1,1.514093653E1
8.944223542E0,-6.796982399E0,-1.144750456E1,-5.191488424E-1,1.332343221E1
8.954239542E0,-3.531624699E0,-1.053162710E1,-1.212192709E0,1.117394083E1
8.964255542E0,-1.292220626E0,-8.617692502E0,-2.659076867E0,9.110716107E0
8.974271542E0,-5.730499381E-1,-8.381878973E0,-3.333135701E0,9.038477468E0
8.984287542E0,-8.455845666E-1,-8.189331915E0,-3.442893493E0,8.923770845E0
8.994303542E0,-1.049248350E0,-7.683099280E0,-2.125727915E0,8.040500968E0
9.004319542E0,-8.070449835E-1,-6.322426470E0,-6.305207589E-1,6.404838366E0
9.014335542E0,6.885301083E-2,-3.529333760E0,-6.299866158E-1,3.585780342E0
9.024351542E0,2.085438114E0,-3.684827596E-1,-1.039333958E0,2.359035130E0
9.034367542E0,3.961082808E0,2.243262650E0,-6.211463566E-1,4.594369067E0
9.044383542E0,4.057729681E0,3.994870943E0,-7.821570410E-1,5.747689419E0
9.054399542E0,3.417247021E0,5.180355325E0,-1.367964873E0,6.354918284E0
9.064415542E0,2.609835125E0,6.275855151E0,-7.736464186E-1,6.840769404E0
9.074431542E0,2.654173391E0,7.609727249E0,8.780655572E-1,8.107008345E0
9.084447542E0,2.857114752E0,8.305885634E0,1.893800299E0,8.985394841E0
9.094463542E0,2.298013054E0,8.731838923E0,1.443855885E0,9.143882916E0
9.104479542E0,1.278343137E0,9.334914313E0,2.532367703E-1,9.425439792E0
9.114495542E0,2.090602959E0,1.007261249E1,-7.789415109E-1,1.031672879E1
9.124511542E0,3.167251362E0,1.073249416E1,-1.261144429E0,1.126092347E1
9.134527542E0,4.221113750E0,1.171160692E1,-1.163408804E0,1.250332187E1
9.144543542E0,5.384088106E0,1.264937518E1,-1.425357049E0,1.382124234E1
9.154559542E0,6.277024595E0,1.326323225E1,-1.761265554E0,1.477891822E1
9.164575542E0,7.056729167E0,1.327045941E1,-3.312361128E0,1.539071979E1
9.174591542E0,7.914181243E0,1.299185946E1,-5.000424221E0,1.601333567E1
9.184608542E0,8.642528551E0,1.245756545E1,-4.985486923E0,1.596055502E1
9.194624542E0,9.149779771E0,1.157699583E1,-5.331733307E0,1.568989109E1
9.204640542E0,9.416527410E0,1.024435457E1,-4.931099632E0,1.476257202E1
9.214656542E0,9.812530675E0,9.452591282E0,-4.002024427E0,1.420047322E1
9.224672542E0,1.032833930E1,9.064475911E0,-3.154983904E0,1.409940565E1
9.234688542E0,1.070916377E1,9.102909075E0,-2.632122957E0,1.429955292E1
9.244704542E0,1.090672716E1,9.267446800E0,-2.177341141E0,1.447698456E1
9.254720542E0,1.023150940E1,9.566856986E0,-2.107299099E0,1.416507136E1
9.264736542E0,8.115886794E0,9.550997583E0,-2.721679496E0,1.282562718E1
9.274752542E0,5.624835516E0,8.457048438E0,-3.172625830E0,1.064077053E1
9.284768542E0,4.353530965E0,7.078333459E0,-3.224652894E0,8.913721036E0
9.294784542E0,3.536676693E0,5.990907469E0,-2.795263197E0,7.497502962E0
9.304800542E0,3.158107486E0,5.701060404E0,-2.341002515E0,6.925028910E0
9.314816542E0,3.229197350E0,5.803405389E0,-1.492017646E0,6.806860237E0
9.324832542E0,3.605528242E0,5.888121019E0,-7.938837782E-2,6.904788596E0
9.334848542E0,3.828597765E0,5.895741695E0,8.970656459E-1,7.086794604E0
9.344864542E0,4.068872720E0,6.062893125E0,1.572814910E0,7.469146203E0
9.354880542E0,4.404877120E0,6.496064801E0,1.723651439E0,8.035718675E0
9.364896542E0,4.874599741E0,7.193928235E0,1.514277411E0,8.820848155E0
9.374912542E0,5.136194229E0,7.682431528E0,8.437327534E-1,9.279662187E0
9.384928542E0,5.337576429E0,8.025922703E0,-4.659839112E-1,9.649989553E0
9.394944542E0,5.984971960E0,7.930023104E0,-6.610212976E-1,9.957012853E0
9.404960542E0,7.170268646E0,7.521108602E0,1.900143943E0,1.056363451E1
9.414976542E0,7.587551683E0,6.967880141E0,6.256314926E0,1.205254208E1
9.424992542E0,6.777512925E0,5.850778946E0,7.777996666E0,1.186016559E1
9.435008542E0,5.755895008E0,4.533970193E0,-1.754068948E0,7.534186813E0
9.445024542E0,6.175209367E0,3.129148566E0,-1.145852656E1,1.338740499E1
9.455041542E0,4.546934055E0,5.738615316E-1,-4.142908995E0,6.177994926E0
9.465057542E0,5.145368510E-1,-4.086279296E0,9.966543996E0,1.078398933E1
9.475073542E0,-8.110458823E0,-6.098034891E0,1.014145761E0,1.019774796E1
9.485089542E0,-2.560249216E1,-1.447759837E1,-6.587422868E0,3.014104509E1
9.495105542E0,-6.116328373E1,-3.765134191E1,6.411894717E0,7.210882899E1
9.505121542E0,-7.529929244E1,-4.611563330E1,3.795717117E0,8.838010265E1
9.515137542E0,-3.857542886E1,-2.102032863E1,3.165372652E-1,4.393197154E1
9.525153542E0,-8.867353992E0,-7.911624840E0,5.622618252E0,1.314677186E1
9.535169542E0,3.614655746E0,-6.604275713E0,4.275659502E0,8.658144029E0
9.545185542E0,8.751487906E0,-4.580364926E0,5.423963486E-1,9.892546549E0
9.555201542E0,9.430691705E0,-2.412108019E0,4.288920987E-1,9.743724112E0
9.565217542E0,9.723312689E0,-6.224594951E-1,9.111254221E-1,9.785725063E0
9.575233542E0,8.991024358E0,1.398553997E0,1.415450550E0,9.208581462E0
9.585249542E0,7.451440197E0,1.838693799E0,1.756295275E0,7.873330235E0
9.595265542E0,4.500193167E0,1.033056825E0,3.272263847E0,5.659209806E0
9.605281542E0,6.783618003E-1,-8.361693799E-1,5.719991350E0,5.820451443E0
9.615297542E0,-3.630129232E0,-2.683269721E0,5.058440294E0,6.779792980E0
9.625313542E0,-8.502856110E0,-3.673192222E0,3.340110260E0,9.846178938E0
9.635329542E0,-1.376431758E1,-5.013178167E0,1.910557249E0,1.477290164E1
9.645345542E0,-1.895335310E1,-7.051050936E0,9.447282010E-1,2.024449121E1
9.655361542E0,-1.758571391E1,-7.787879046E0,1.869412585E0,1.932364089E1
9.665377042E0,-1.176164622E1,-3.717615273E0,1.672803467E0,1.244810253E1
9.675393042E0,-6.937343057E0,-6.944322878E-1,-6.442409581E-1,7.001714883E0
9.685409042E0,-3.849153652E0,4.424588084E-3,5.106747651E-1,3.882884511E0
9.695425042E0,-3.662197702E0,5.320977938E-1,1.728008346E0,4.084217540E0
9.705442042E0,-4.803926200E0,-3.851566797E-1,2.355444260E0,5.364156062E0
9.715457042E0,-6.599729503E0,-2.441401400E0,3.483502699E0,7.851857192E0
9.725474042E0,-7.482326360E0,-4.289536698E0,1.076826158E0,8.691656195E0
9.735490042E0,-7.612049178E0,-7.210361835E0,1.060755086E-1,1.048541189E1
9.745506042E0,-8.065361588E0,-1.018070879E1,-1.787513559E0,1.311076252E1
9.755522042E0,-6.224635881E0,-1.130043188E1,-5.094496565E0,1.387082362E1
9.765538042E0,-3.108955792E0,-1.087660230E1,-4.767164755E0,1.227566469E1
9.775554042E0,-1.608624575E0,-1.013360596E1,-4.099881674E0,1.104928380E1
9.785570042E0,-2.070828846E0,-1.038727923E1,-3.434581969E0,1.113464212E1
9.795586042E0,-1.878728808E0,-1.064189507E1,-2.472449530E0,1.108569164E1
9.805602042E0,-1.180423617E0,-9.643925627E0,-8.953712690E-1,9.757068777E0
9.815618042E0,-6.738193908E-1,-5.774410801E0,4.991955113E-1,5.834984904E0
9.825634042E0,1.831540900E-1,-5.742544645E-1,-1.220386997E-3,6.027562526E-1
9.835650042E0,9.656255651E-1,3.793442550E0,-3.965155540E-1,3.934445793E0
9.845666042E0,1.666244792E0,6.738825408E0,-1.883629359E-2,6.941793312E0
9.855682042E0,2.091769187E0,8.730222752E0,2.202376580E0,9.243524773E0
9.865698042E0,2.059519453E0,1.029138957E1,6.585842950E0,1.239062739E1
9.875714042E0,1.875008225E0,1.088557427E1,8.891173795E0,1.417971630E1
9.885730042E0,1.501242506E0,9.868060513E0,7.388938724E0,1.241888734E1
9.895746042E0,6.371148102E-1,8.616980311E0,4.655567721E0,9.814915984E0
9.905762042E0,-6.149271119E-1,7.739757046E0,2.507052183E0,8.158877688E0
9.915778042E0,-1.549265103E0,7.562891051E0,1.144143909E0,7.804268620E0
9.925794042E0,-1.703853937E0,8.380080954E0,5.429582660E-1,8.568761796E0
9.935810042E0,-1.515887734E-1,9.125911437E0,5.459983796E-1,9.143486913E0
9.945826042E0,1.614626157E0,9.581987241E0,7.635404565E-1,9.747024733E0
9.955842042E0,2.889331156E0,1.007962798E1,9.017358170E-1,1.052427015E1
9.965858042E0,4.074877518E0,1.048748413E1,4.306013860E-1,1.125954563E1
9.975874042E0,5.499114532E0,1.079013602E1,-1.021702264E0,1.215364848E1
9.985891042E0,6.213638438E0,1.076394283E1,-3.665080964E0,1.295780021E1
9.995907042E0,6.490925099E0,1.088077721E1,-6.866643788E0,1.441090623E1
1.000592304E1,7.372056643E0,1.117686618E1,-7.849794627E0,1.552059382E1
1.001593904E1,8.205547414E0,1.131746248E1,-7.233084115E0,1.573955117E1
1.002595504E1,8.001856148E0,1.130055350E1,-6.247749925E0,1.519100360E1
1.003597104E1,7.178222029E0,1.124543531E1,-6.011501362E0,1.463300500E1
1.004598704E1,6.476633334E0,1.120303598E1,-5.730271924E0,1.415241360E1
1.005600304E1,5.540716887E0,1.116378245E1,-4.374570417E0,1.320857481E1
1.006601904E1,4.205084486E0,1.098995525E1,-2.386584923E0,1.200656652E1
1.007603504E1,2.517849944E0,1.045419710E1,-7.519067632E-1,1.077938631E1
1.008605104E1,1.206900102E0,8.664197747E0,4.194955500E-1,8.757905399E0
1.009606704E1,8.495732448E-1,7.542718157E0,8.952441651E-1,7.643025187E0
1.010608304E1,3.323984224E-1,7.355666313E0,4.182144982E-1,7.375040270E0
1.011609904E1,-2.453798667E-1,7.349989836E0,1.501621990E-1,7.355617619E0
1.012611504E1,-5.731964108E-1,7.330278872E0,4.449473834E-1,7.366106206E0
1.013613104E1,-6.214306775E-1,7.200040330E0,8.373534411E-1,7.275157567E0
1.014614704E1,-9.659582716E-1,6.989642308E0,1.017822490E0,7.129104964E0
1.015616304E1,-2.005060826E0,6.682803234E0,1.105436000E0,7.064143029E0
1.016617904E1,-2.982964666E0,6.244008291E0,1.465611181E0,7.073452755E0
1.017619504E1,-3.074555160E0,5.831358588E0,1.337704216E0,6.726595349E0
1.018621104E1,-2.797435730E0,6.072091380E0,9.287465912E-1,6.749704484E0
1.019622704E1,-2.164898559E0,6.693843947E0,1.437512679E0,7.180583212E0
1.020624304E1,-1.910912760E0,7.669256582E0,2.267167237E0,8.222477204E0
1.021625904E1,-9.667529082E-1,8.453539524E0,1.597926216E0,8.657384701E0
1.022627504E1,-4.384315386E-1,7.922949727E0,-5.521250921E-1,7.954256515E0
1.023629104E1,-9.990239838E-1,6.528620344E0,2.023858747E0,6.907744693E0
1.024630704E1,-4.982710665E-1,4.550045943E0,9.169669660E0,1.024861131E1
1.025632304E1,4.211509406E0,-8.332282305E-2,1.447435784E1,1.507483960E1
1.026634004E1,7.492473618E0,-3.920675039E0,-2.088922470E0,8.710479365E0
1.027635604E1,3.267870249E0,-6.915817702E0,-8.689540164E0,1.157651151E1
1.028637204E1,-1.578280449E0,-9.758866099E0,-1.771413982E-3,9.885668407E0
1.029638804E1,-3.913106403E0,-1.083359252E1,-5.539204212E0,1.278131104E1
1.030640404E1,-1.007756859E1,-1.316878685E1,-1.224601553E1,2.061405424E1
1.031642004E1,-2.124119901E1,-1.847378903E1,-1.361082115E0,2.818371801E1
1.032643604E1,-3.220095808E1,-2.261244125E1,1.611649573E1,4.252017915E1
1.033645204E1,-3.640117212E1,-2.177254719E1,9.644093442E0,4.349824918E1
1.034646804E1,-2.098580667E1,-1.484349841E1,1.854128548E0,2.577152148E1
1.035648404E1,-3.602982364E0,-9.931947191E0,-4.337935272E-1,1.057417769E1
1.036650004E1,1.631466138E0,-6.337974801E0,2.792327602E0,7.115384724E0
1.037651604E1,2.911304115E0,-1.284292971E0,2.596996686E0,4.107248698E0
1.038653204E1,5.644534786E0,8.530602318E-1,3.990033250E0,6.964829505E0
1.039654804E1,7.407327048E0,1.828773998E0,2.324470828E0,7.975968466E0
1.040656404E1,6.606891757E0,2.110729660E0,-9.942804301E-1,7.006767583E0
1.041658004E1,4.774379050E0,1.228254426E-1,5.804048583E-1,4.811096673E0
1.042659604E1,1.412894293E0,-2.787479383E0,3.462339871E0,4.664130034E0
1.043661204E1,-3.168588036E0,-6.208339691E0,3.413223844E0,7.761026277E0
1.044662804E1,-7.205940755E0,-1.093375065E1,3.361856055E0,1.351941425E1
1.045664404E1,-1.145513517E1,-1.495885930E1,3.390185814E0,1.914369226E1
1.046666004E1,-1.496400134E1,-1.591297053E1,3.234075682E0,2.208173935E1
1.047667604E1,-1.544807244E1,-1.449584168E1,2.738966789E0,2.136057835E1
1.048669204E1,-1.378509741E1,-1.210770783E1,3.621603407E0,1.870137724E1
1.049670804E1,-1.097524015E1,-9.752277457E0,3.232712403E0,1.503373678E1
1.050672404E1,-8.486229553E0,-8.106434185E0,2.477095728E0,1.199443081E1
1.051674004E1,-6.807806765E0,-7.427873579E0,2.876480438E0,1.047824788E1
1.052675604E1,-6.761247725E0,-6.860919948E0,2.012263134E0,9.840523170E0
1.053677304E1,-6.647158608E0,-6.186197455E0,1.067302213E0,9.142914772E0
1.054678804E1,-6.045616357E0,-6.195465292E0,3.003948569E-1,8.661610958E0
1.055680504E1,-5.015952086E0,-6.723656561E0,-5.692311215E-1,8.407815231E0
1.056682104E1,-5.266269634E0,-7.098257847E0,-2.087084982E0,9.081562864E0
1.057683704E1,-5.117943900E0,-6.892562740E0,-2.740811001E0,9.011815346E0
1.058685304E1,-4.722331814E0,-5.719851016E0,-2.246663391E0,7.750136115E0
1.059686904E1,-3.509343299E0,-3.491471284E0,-9.657764232E-1,5.043667933E0
1.060688504E1,-8.818036821E-1,2.696975595E-1,-3.130125636E-1,9.738025325E-1
1.061690104E1,3.875525764E-1,3.548409131E0,-1.081804039E0,3.729839720E0
1.062691704E1,9.758774883E-1,5.946576803E0,-2.429381863E0,6.497384765E0
1.063693304E1,8.923997140E-1,7.486471451E0,-3.015596223E0,8.120187967E0
1.064694904E1,8.728749838E-1,7.942127425E0,-2.746289842E0,8.448751782E0
1.065696504E1,1.439561689E0,7.733016960E0,-1.458983801E0,8.000032681E0
1.066698129E1,2.260925335E0,7.843243992E0,3.617466210E-1,8.170625453E0
1.067699729E1,2.501350856E0,8.273174556E0,2.371846431E0,8.962579362E0
1.068701329E1,1.716953308E0,9.085976708E0,4.423323331E0,1.025030198E1
1.069702929E1,8.354168433E-1,9.914620721E0,6.196282732E0,1.172141395E1
1.070704529E1,1.022316075E0,9.752366919E0,4.879783298E0,1.095290262E1
1.071706129E1,1.922356930E0,8.669788270E0,1.761865479E0,9.053444360E0
1.072707729E1,2.801505100E0,8.180062909E0,-2.261078093E-1,8.649449969E0
1.073709329E1,4.216687700E0,8.586692319E0,-8.732489864E-1,9.605951485E0
1.074710929E1,5.388025621E0,8.998189536E0,-9.281295638E-1,1.052899138E1
1.075712529E1,6.417686384E0,9.143528513E0,-1.026746949E0,1.121806674E1
1.076714129E1,7.246720991E0,9.239366716E0,-1.444717326E0,1.183081023E1
1.077715729E1,7.760021741E0,9.358991978E0,-2.023969113E0,1.232497948E1
1.078717329E1,8.126525218E0,9.512021213E0,-2.382868432E0,1.273565945E1
1.079718929E1,8.092147683E0,9.672236676E0,-2.346563217E0,1.282736822E1
1.080720529E1,7.967897274E0,9.805741473E0,-2.283039943E0,1.283947912E1
1.081722129E1,8.056466219E0,9.914540030E0,-1.814767139E0,1.290341551E1
1.082723729E1,8.093617088E0,1.009891794E1,-9.435862398E-1,1.297632984E1
1.083725429E1,7.603437399E0,1.008700366E1,-9.546152580E-1,1.266772250E1
1.084727029E1,6.434771363E0,9.795582520E0,-1.562681393E0,1.182377658E1
1.085728629E1,5.093652812E0,9.366665279E0,-2.303399948E0,1.090804147E1
1.086730229E1,3.620352103E0,8.935805007E0,-3.307960514E0,1.019304485E1
1.087731829E1,2.276096813E0,8.315428875E0,-4.146765819E0,9.566746617E0
1.088733429E1,2.011345413E0,7.467948641E0,-4.636366049E0,9.017297678E0
1.089735029E1,2.230742007E0,7.063514276E0,-4.725182331E0,8.786170491E0
1.090736629E1,2.046386315E0,7.313767505E0,-4.021579855E0,8.593718438E0
1.091738229E1,2.030998490E0,7.568609043E0,-3.000008131E0,8.390997944E0
1.092739829E1,1.748069266E0,7.736943365E0,-1.909898707E0,8.158661156E0
1.093741429E1,1.590477448E0,7.996449228E0,-1.244168646E0,8.247470787E0
1.094743029E1,2.006445739E0,8.369450716E0,-9.309534766E-1,8.656801035E0
1.095744629E1,2.464981467E0,8.654494293E0,-7.493288720E-1,9.029833822E0
1.096746229E1,2.769467036E0,8.668402480E0,-7.171555911E-1,9.128278116E0
1.097747829E1,2.712870373E0,8.596953013E0,-5.375473988E-1,9.030848464E0
1.098749429E1,2.391653582E0,8.306270381E0,5.068366528E-1,8.658580593E0
1.099751029E1,1.895413545E0,7.558433134E0,2.591846166E0,8.212196448E0
1.100752629E1,1.049869325E0,5.960103752E0,5.723873316E0,8.329933257E0
1.101754229E1,-1.505148153E0,3.344592735E0,9.049866058E0,9.764827044E0
1.102755829E1,-8.112236377E0,-5.084288496E-1,2.322137496E1,2.460282777E1
1.103757429E1,-1.552902597E1,-8.224634480E0,2.097786147E1,2.736541489E1
1.104759029E1,-1.176523290E1,-1.163423188E1,-1.661871542E1,2.345117820E1
1.105760629E1,-3.786674983E0,-1.420744999E1,-9.603973356E0,1.756208549E1
1.106762229E1,7.825196561E0,-1.741004601E1,6.975290317E0,2.032235416E1
1.107763829E1,1.015710943E1,-1.137564812E1,-1.255408895E1,1.975290843E1
1.108765429E1,4.251608149E0,-7.933017463E0,-1.474712577E1,1.727676638E1
1.109767029E1,1.395043913E0,-1.160967708E1,1.112973294E1,1.614316279E1
1.110768629E1,-7.836627283E0,-1.031438784E1,2.068932243E1,2.440998538E1
1.111770229E1,-1.171442527E1,-8.328969272E0,7.287978945E0,1.611564847E1
1.112771929E1,-1.113188706E1,-1.341434067E1,4.427774817E-1,1.743730189E1
1.113773529E1,-1.395986017E1,-1.529096244E1,-1.624223484E0,2.076846961E1
1.114775129E1,-1.430130715E1,-1.437405704E1,3.319941459E0,2.054660345E1
1.115776729E1,-1.000904975E1,-1.026300835E1,1.913637562E0,1.446279454E1
1.116778329E1,-4.719938548E0,-4.384682592E0,2.656366682E-1,6.447776684E0
1.117779929E1,-1.456337936E0,-9.424922258E-2,2.098337656E0,2.555938970E0
1.118781529E1,-4.932301819E-2,2.104041030E0,-2.600549161E-1,2.120624903E0
1.119783129E1,-5.444909674E-1,4.615140072E0,-7.142841697E-2,4.647697313E0
1.120784729E1,-1.926420161E0,6.139509192E0,2.198523849E0,6.799865798E0
1.121786329E1,-3.391124877E0,5.627636917E0,2.882336132E0,7.174809181E0
1.122787929E1,-3.601784270E0,3.899863045E0,3.616301444E0,6.423349425E0
1.123789529E1,-3.441046650E0,1.673597081E0,3.596774083E0,5.251524830E0
1.124791129E1,-4.453475084E0,-1.511257324E0,3.548370832E0,5.891372894E0
1.125792729E1,-6.557457642E0,-6.016567390E0,4.540299512E0,9.990678332E0
1.126794329E1,-8.538061611E0,-1.106264199E1,3.434182019E0,1.439007123E1
1.127795929E1,-1.176476746E1,-1.455183228E1,2.254478195E0,1.884803035E1
1.128797529E1,-1.268795744E1,-1.405104165E1,2.195865120E0,1.905880004E1
1.129799129E1,-9.704206327E0,-1.083470115E1,3.259359627E0,1.490589798E1
1.130800729E1,-7.011317351E0,-8.565098552E0,4.036905115E0,1.178202390E1
1.131802329E1,-6.349188591E0,-7.228295245E0,4.370670032E0,1.056708117E1
1.132803929E1,-6.512345204E0,-6.634521605E0,4.294845386E0,1.024076237E1
1.133805529E1,-6.615838582E0,-6.442897823E0,3.433763943E0,9.852460978E0
1.134807129E1,-6.567340606E0,-6.685659015E0,2.015701881E0,9.585982118E0
1.135808729E1,-6.369840957E0,-7.670124893E0,1.797210728E0,1.013092573E1
1.136810329E1,-5.184850080E0,-8.760090330E0,6.015577456E-1,1.019724103E1
1.137811929E1,-3.407122859E0,-9.161994604E0,-9.368397224E-1,9.819791239E0
1.138813529E1,-1.543419934E0,-8.660478333E0,-1.940466488E0,9.008409418E0
1.139815129E1,3.030787289E-1,-7.767581606E0,-2.681914337E0,8.223128676E0
1.140816729E1,9.192033505E-1,-6.478843582E0,-2.557699011E0,7.025821887E0
1.141818429E1,1.263112602E0,-4.803833814E0,-1.030426163E0,5.072874021E0
1.142820029E1,2.335264496E0,-1.707023858E0,8.514193569E-1,3.015345028E0
1.143821629E1,3.168668143E0,2.256805387E0,3.280723599E-1,3.904005613E0
1.144823229E1,3.090767150E0,5.529455150E0,-1.266090735E0,6.459930462E0
1.145824829E1,2.744670456E0,7.737905817E0,-2.229829988E0,8.507675600E0
1.146826429E1,2.540292435E0,8.778262306E0,-2.436798033E0,9.457746002E0
1.147828029E1,2.013824925E0,9.187033551E0,-1.988161057E0,9.613004769E0
1.148829629E1,1.825542827E0,9.647591831E0,-6.170584220E-1,9.838160186E0
1.149831229E1,2.177247878E0,1.020524839E1,1.078605612E0,1.049051443E1
1.150832829E1,2.632429351E0,1.074816821E1,2.495561235E0,1.134374850E1
1.151834429E1,2.822239326E0,1.114220155E1,3.296643813E0,1.195748931E1
1.152836029E1,2.342881079E0,1.133950999E1,3.195009264E0,1.201173022E1
1.153837629E1,1.656214478E0,1.112691926E1,2.018766407E0,1.142920804E1
1.154839229E1,2.681251262E0,9.994549820E0,8.179342532E-1,1.038022885E1
1.155840829E1,3.900848885E0,9.302591490E0,4.573564906E-1,1.009772278E1
1.156842429E1,4.228520418E0,9.601925662E0,4.896417457E-1,1.050319525E1
1.157844029E1,4.728242472E0,9.795626374E0,3.510668278E-3,1.087706694E1
1.158845629E1,5.658911920E0,9.833190057E0,-1.046069804E0,1.139338285E1
1.159847229E1,6.485753821E0,9.819076048E0,-1.859372478E0,1.191371156E1
1.160848829E1,6.728895081E0,9.858397404E0,-2.334851682E0,1.216213636E1
1.161850429E1,6.548672200E0,9.821820731E0,-2.222243957E0,1.201214545E1
1.162852029E1,6.328060847E0,9.608095644E0,-1.794029404E0,1.164381370E1
1.163853629E1,6.297169422E0,9.464921890E0,-2.558351560E0,1.165264999E1
1.164855229E1,6.021083779E0,9.129731423E0,-3.335861673E0,1.143387156E1
1.165856829E1,5.405987098E0,8.599670214E0,-4.020406904E0,1.092440827E1
1.166858483E1,4.767261234E0,8.092926532E0,-4.129332930E0,1.026029385E1
1.167860083E1,3.147557063E0,7.896555980E0,-3.988353052E0,9.389870706E0
1.168861683E1,1.601571955E0,7.802470772E0,-3.400830086E0,8.660786809E0
1.169863283E1,1.079252753E0,7.924516781E0,-3.052320538E0,8.560339560E0
1.170864883E1,9.017748472E-1,8.300089874E0,-2.867178102E0,8.827536466E0
1.171866483E1,1.075940305E0,8.531943669E0,-2.683883679E0,9.008603772E0
1.172868083E1,1.484762421E0,8.630835873E0,-2.525645744E0,9.114534203E0
1.173869783E1,2.101639287E0,8.547490831E0,-2.079206882E0,9.044312492E0
1.174871383E1,2.706488138E0,8.264734100E0,-1.229447988E0,8.783077487E0
1.175872983E1,3.111524473E0,8.081802789E0,-7.146236005E-1,8.689522873E0
1.176874583E1,3.522678459E0,7.767261763E0,-7.724740519E-1,8.563663643E0
1.177876183E1,3.409674584E0,7.337755122E0,-7.081565800E-1,8.122192853E0
1.178877783E1,3.321792687E0,6.670354512E0,3.976691365E-1,7.462310414E0
1.179879383E1,2.772330709E0,5.661285304E0,2.582441796E0,6.812119677E0
1.180880983E1,1.508413239E0,4.053726677E0,5.780524065E0,7.219589250E0
1.181882583E1,9.699127436E-2,2.167234814E0,7.644959062E0,7.946805213E0
1.182884183E1,-6.830506825E-1,-1.892427957E-1,8.297449272E0,8.327666869E0
1.183885783E1,-6.400742322E-1,-3.322783790E0,-1.668980412E0,3.773073383E0
1.184887383E1,5.647708654E-1,-4.676156936E0,-1.624542684E1,1.691447022E1
1.185888983E1,3.274262425E0,-6.891511996E0,-5.481880449E0,9.394931893E0
1.186890583E1,4.122948355E0,-1.044050526E1,5.802327163E0,1.263605373E1
1.187892183E1,-4.639198440E-1,-1.055748583E1,-2.594118101E0,1.088141431E1
1.188893783E1,-5.571618837E0,-1.569140081E1,7.073397825E0,1.809132258E1
1.189895383E1,-8.433031000E0,-2.901598907E1,2.601843969E1,3.987483965E1
1.190896983E1,-1.372625571E1,-3.721275864E1,8.739606364E0,4.061502457E1
1.191898583E1,-2.471518420E1,-2.762155443E1,-7.079252057E0,3.773468443E1
1.192900183E1,-2.097022501E1,-1.431595092E1,-1.259399854E1,2.834264608E1
1.193901783E1,-7.822779322E0,-6.700095790E0,-3.061787472E0,1.074531072E1
1.194903383E1,1.057863638E0,-9.305463642E-1,4.169502717E0,4.401107238E0
1.195904983E1,4.167906427E0,3.530605529E0,-5.952056229E-1,5.494623656E0
1.196906583E1,4.987223547E0,7.274325112E0,5.114910364E-1,8.834581349E0
1.197908183E1,3.988094605E0,9.619820480E0,2.765452922E0,1.077467283E1
1.198909783E1,2.139598534E0,1.018652794E1,2.925154415E-1,1.041291500E1
1.199911383E1,-1.879439537E0,8.514203802E0,-2.486858824E-1,8.722717697E0
1.200912983E1,-5.217436613E0,5.673044640E0,6.124534473E-1,7.731764321E0
1.201914683E1,-6.351119342E0,2.543342927E0,3.183017502E0,7.545655078E0
1.202916183E1,-8.210766639E0,2.020312411E-1,6.156525759E0,1.026451727E1
1.203917883E1,-8.160393460E0,-1.556699545E0,3.752751484E0,9.115836693E0
1.204919483E1,-5.741106230E0,-3.013263184E0,3.986673732E0,7.611414008E0
1.205921083E1,-5.496266938E0,-4.486670896E0,3.527894175E0,7.923711460E0
1.206922683E1,-6.172694480E0,-5.624808034E0,3.278664209E0,8.971636504E0
1.207924283E1,-5.545745493E0,-6.380457162E0,4.610380730E0,9.629181540E0
1.208925883E1,-4.258472781E0,-5.852998549E0,3.687096023E0,8.123229624E0
1.209927483E1,-3.838149192E0,-4.318860485E0,4.016469681E0,7.036758757E0
1.210929083E1,-3.576520790E0,-3.773434548E0,3.715495950E0,6.390244080E0
1.211930683E1,-3.220548733E0,-4.136111607E0,3.207780168E0,6.145665706E0
1.212932283E1,-3.827341783E0,-4.784003567E0,2.427633838E0,6.590041070E0
1.213933883E1,-4.635901780E0,-5.885769854E0,1.506092186E0,7.642132278E0
1.214935483E1,-5.405131651E0,-7.262517829E0,1.132835175E0,9.123756294E0
1.215937083E1,-5.743388983E0,-8.274330550E0,1.513262334E-1,1.007342855E1
1.216938683E1,-5.507464356E0,-8.885465743E0,-7.988895795E-1,1.048436406E1
1.217940283E1,-4.978139312E0,-9.245352511E0,-1.302657321E0,1.058089458E1
1.218941883E1,-3.877398627E0,-9.973883421E0,-9.262659100E-1,1.074106788E1
1.219943483E1,-2.645542316E0,-1.074555333E1,-6.889762509E-1,1.108785367E1
1.220945083E1,-1.740699728E0,-1.115760077E1,-6.171092927E-1,1.130941707E1
1.221946683E1,-1.682145125E0,-1.088718810E1,-6.669556367E-1,1.103654415E1
1.222948283E1,-2.148330181E0,-1.079395542E1,-1.138920665E-2,1.100567698E1
1.223949883E1,-2.152172678E0,-9.397069046E0,-1.007055719E-1,9.640897028E0
1.224951483E1,-1.737362722E-1,-5.154121208E0,6.285920548E-1,5.195216808E0
1.225953083E1,1.373241108E0,5.396383631E-1,1.816632401E0,2.340332024E0
1.226954683E1,1.984960145E0,4.433697461E0,1.471690239E0,5.075786847E0
1.227956283E1,1.967258284E0,6.448738607E0,2.887806787E-1,6.748313053E0
1.228957883E1,1.540687822E0,7.619184535E0,-7.405001611E-1,7.808587096E0
1.229959483E1,1.035038447E0,8.872917618E0,-1.179018092E0,9.010552442E0
1.230961183E1,7.854175946E-1,1.012458839E1,-9.634404606E-1,1.020060725E1
1.231962783E1,7.134275526E-1,1.095968422E1,-4.398848641E-1,1.099168576E1
1.232964383E1,1.086495114E0,1.137274674E1,5.045819664E-1,1.143566539E1
1.233965983E1,1.806498445E0,1.163841732E1,1.639391015E0,1.189133286E1
1.234967583E1,1.993792949E0,1.159996252E1,1.959123053E0,1.193199497E1
1.235969183E1,1.911378491E0,1.134014383E1,1.647164742E0,1.161746020E1
1.236970783E1,1.854676871E0,1.106650349E1,1.374915458E0,1.130476530E1
1.237972383E1,1.890887216E0,1.099605741E1,9.202921021E-1,1.119534147E1
1.238973983E1,2.298758866E0,1.092706845E1,2.719791430E-1,1.116956086E1
1.239975583E1,2.797051275E0,1.074708647E1,-5.213213754E-1,1.111733509E1
1.240977183E1,3.092487109E0,1.064695875E1,-1.247918466E0,1.115699367E1
1.241978783E1,3.694323767E0,1.071850295E1,-1.451469544E0,1.142983365E1
1.242980383E1,4.197416447E0,1.068427568E1,-1.594329886E0,1.158938909E1
1.243981983E1,4.580572210E0,1.039150560E1,-1.606651139E0,1.146936608E1
1.244983583E1,5.098791345E0,9.999226424E0,-1.551887287E0,1.133095567E1
1.245985183E1,5.316653922E0,9.656775468E0,-1.852289307E0,1.117815267E1
1.246986783E1,5.519005591E0,9.253115274E0,-2.341039937E0,1.102542666E1
1.247988383E1,5.787130834E0,8.992978497E0,-2.745547830E0,1.104095007E1
1.248989983E1,5.763947209E0,8.878861313E0,-2.715782287E0,1.092852868E1
1.249991583E1,5.376422406E0,8.437094230E0,-2.120019717E0,1.022667886E1
1.250993183E1,4.783075906E0,7.857142823E0,-1.862248284E0,9.385119985E0
1.251994783E1,4.111706206E0,7.145324425E0,-1.787361386E0,8.435428251E0
1.252996383E1,3.254706120E0,6.811841344E0,-1.725396395E0,7.744113063E0
1.253997983E1,2.651326967E0,6.584810917E0,-1.706292079E0,7.300732988E0
1.254999583E1,2.188671876E0,6.445283487E0,-1.704822089E0,7.017006639E0
1.256001183E1,1.599733298E0,6.509285941E0,-1.378274683E0,6.843214974E0
1.257002783E1,1.376447136E0,6.304739227E0,-5.531787604E-1,6.476908999E0
1.258004383E1,1.519815894E0,6.107962294E0,7.696437071E-1,6.341087854E0
1.259006083E1,1.814117367E0,5.576756201E0,2.653260641E0,6.436693528E0
1.260007683E1,1.699078662E0,4.459921639E0,5.688357913E0,7.425307069E0
1.261009283E1,1.366506577E0,2.524973899E0,7.766413917E0,8.280097738E0
1.262010883E1,1.340384434E0,-3.872879899E-1,3.244355671E0,3.531637883E0
1.263012483E1,-5.783212030E-1,-4.253837693E0,-1.619628011E0,4.588331442E0
1.264014083E1,-1.922161926E0,-6.876702753E0,-3.775725487E0,8.077118928E0
1.265015683E1,-1.711460141E0,-7.969495903E0,-7.279586436E0,1.092860190E1
1.266017283E1,-8.953461260E-2,-7.671006653E0,-9.388454343E0,1.212416737E1
1.267018946E1,1.443409157E0,-6.222937850E0,-7.830645581E0,1.010581000E1
1.268020546E1,2.520854243E0,-8.331291202E0,-5.296279299E-1,8.720414265E0
1.269022146E1,1.979213209E0,-1.346740065E1,8.019370898E0,1.579868585E1
1.270023746E1,7.203974336E-2,-1.916074097E1,6.433912407E0,2.021223424E1
1.271025346E1,-1.472746685E0,-2.540383885E1,3.272791558E0,2.565609432E1
1.272026946E1,-7.414676414E0,-2.671468871E1,2.008566816E0,2.779723655E1
1.273028546E1,-1.341502947E1,-1.508444580E1,-1.474868347E0,2.024052266E1
1.274030146E1,-1.388315405E1,-7.018586610E0,-7.104647099E0,1.710200382E1
1.275031746E1,-1.224573954E1,-2.995918588E0,-8.182131654E-1,1.263341355E1
1.276033346E1,-8.135762649E0,1.796562856E-1,4.880341122E0,9.488974641E0
1.277034946E1,-2.025935093E0,2.581436952E0,-7.797990051E-1,3.372879516E0
1.278036546E1,4.270291758E-1,3.657525192E0,-2.955475152E-2,3.682488008E0
1.279038146E1,5.958248430E-1,4.355229582E0,1.135979954E0,4.540207309E0
1.280039746E1,1.941503638E-1,4.706598126E0,-2.179021192E0,5.190172795E0
1.281041346E1,-6.819326949E-1,4.689935315E0,-2.628325775E0,5.419282410E0
1.282042946E1,-2.207611007E0,4.543501740E0,-1.269213586E0,5.208440990E0
1.283044546E1,-3.433362824E0,3.689451574E0,6.099822678E-1,5.076624033E0
1.284046146E1,-4.864970546E0,2.288141785E0,3.410208435E0,6.366557375E0
1.285047846E1,-6.309933309E0,1.915594625E-1,5.006916969E0,8.057367493E0
1.286049446E1,-6.272875995E0,-1.777379896E0,4.080585278E0,7.691503673E0
1.287051046E1,-5.993698930E0,-2.351118051E0,1.887833069E0,6.709403598E0
1.288052646E1,-5.912186989E0,-1.716727898E0,1.715349563E0,6.390894600E0
1.289054246E1,-5.427104902E0,-1.073929448E0,1.713190186E0,5.791529391E0
1.290055846E1,-4.487411154E0,-6.292276472E-1,1.959424769E0,4.936813924E0
1.291057446E1,-3.811757784E0,-2.519787419E-1,1.630850426E0,4.153632603E0
1.292059046E1,-3.744318337E0,-3.688774467E-1,9.705062360E-1,3.885598118E0
1.293060646E1,-3.771891468E0,-8.745756465E-1,1.050118416E0,4.011832062E0
1.294062246E1,-4.208365651E0,-1.936033568E0,1.335978118E0,4.821141458E0
1.295063846E1,-5.445417797E0,-3.712804184E0,9.344102043E-1,6.656621690E0
1.296065446E1,-6.373374429E0,-5.748240418E0,3.145568132E-1,8.588429164E0
1.297067046E1,-6.704665389E0,-7.765766630E0,-4.798160845E-1,1.027082727E1
1.298068646E1,-6.366920857E0,-9.300916847E0,-7.766165118E-1,1.129813563E1
1.299070246E1,-6.525866305E0,-1.078870929E1,-3.692146848E-1,1.261425776E1
1.300071846E1,-6.631984499E0,-1.250354328E1,9.145187075E-1,1.418302356E1
1.301073446E1,-6.383366736E0,-1.455165452E1,1.618763208E0,1.597242670E1
1.302075046E1,-7.125777183E0,-1.601234630E1,1.435325528E0,1.758499627E1
1.303076646E1,-7.904606427E0,-1.638655406E1,2.552172223E0,1.837159601E1
1.304078246E1,-7.259466167E0,-1.408956778E1,3.859819558E0,1.631300022E1
1.305079846E1,-4.804152779E0,-7.861509524E0,4.683366553E0,1.033523769E1
1.306081446E1,-2.968990406E0,-2.587205231E0,4.792645751E0,6.203062811E0
1.307083046E1,-2.002356196E0,-2.648303372E-1,3.912840940E0,4.403395243E0
1.308084646E1,-1.070365277E0,1.827254307E0,2.486927236E0,3.266396670E0
1.309086246E1,-1.470323306E-1,3.617831368E0,1.500949852E0,3.919588343E0
1.310087846E1,8.338369256E-1,4.708360476E0,1.082202673E0,4.902561067E0
1.311089446E1,1.684827535E0,5.525311813E0,3.593187109E-3,5.776480534E0
1.312091046E1,2.932431567E0,6.208596969E0,-1.194687899E0,6.969441182E0
1.313092746E1,3.853886973E0,6.752196820E0,-1.821814057E0,7.985212155E0
1.314094346E1,4.526449504E0,6.983040801E0,-1.949502629E0,8.547055894E0
1.315095946E1,4.569956590E0,7.560618823E0,-1.493262518E0,8.959759660E0
1.316097546E1,4.550319885E0,8.558225150E0,-8.443847179E-2,9.693077872E0
1.317099146E1,4.818888640E0,9.617800852E0,1.208430026E0,1.082515977E1
1.318100746E1,5.063586429E0,1.064508531E1,8.906256688E-1,1.182163114E1
1.319102346E1,5.265177374E0,1.145518663E1,-1.417769117E0,1.268674358E1
1.320103946E1,5.237190846E0,1.152072105E1,-3.886423804E0,1.323856002E1
1.321105546E1,5.233614689E0,1.110773572E1,-3.916391954E0,1.288839173E1
1.322107146E1,5.644303236E0,1.094582281E1,-3.415824101E0,1.278033843E1
1.323108746E1,5.856606281E0,1.082258806E1,-3.038236642E0,1.267513832E1
1.324110346E1,6.040862571E0,1.070613959E1,-2.362411364E0,1.251776470E1
1.325111946E1,6.282784687E0,1.072762577E1,-1.888355371E0,1.257462620E1
1.326113546E1,6.430076634E0,1.083627756E1,-1.412925868E0,1.267939890E1
1.327115146E1,6.213413905E0,1.089621737E1,-1.270086576E0,1.260742580E1
1.328116746E1,5.436913022E0,1.079038862E1,-1.850675914E0,1.222364557E1
1.329118346E1,4.721951452E0,1.025895273E1,-2.095892351E0,1.148632671E1
1.330119946E1,4.161627687E0,9.216625725E0,-1.625991974E0,1.024251847E1
1.331121546E1,3.161686859E0,8.589682000E0,-8.603160417E-1,9.193423973E0
1.332123146E1,2.241582745E0,8.113506977E0,-2.545912778E-1,8.421312569E0
1.333124746E1,1.583617203E0,7.949484977E0,2.490808618E-1,8.109512693E0
1.334126346E1,1.162154576E0,8.020536833E0,6.521124798E-1,8.130489840E0
1.335127946E1,1.183216832E0,7.964192478E0,6.798839767E-1,8.080260276E0
1.336129546E1,1.445686356E0,7.800147089E0,8.078081913E-1,7.974011394E0
1.337131146E1,1.738760206E0,7.492772995E0,1.060627032E0,7.764654784E0
1.338132746E1,1.800679881E0,7.140885803E0,1.065256711E0,7.441066452E0
1.339134346E1,1.698052183E0,6.807471135E0,6.993737698E-1,7.050827479E0
1.340135946E1,1.497830655E0,6.610326412E0,5.333824271E-1,6.798853488E0
1.341137546E1,1.639922966E0,6.391096171E0,6.843913029E-1,6.633539707E0
1.342139146E1,2.076988595E0,6.108370430E0,1.047689921E0,6.536338815E0
1.343140846E1,2.580560747E0,6.058098993E0,1.333377423E0,6.718463555E0
1.344142446E1,3.056898031E0,5.665682995E0,1.854650120E0,6.699575840E0
1.345144046E1,2.674733956E0,4.299880423E0,3.259050894E0,6.022008478E0
1.346145646E1,1.469747940E0,1.885713015E0,6.433368616E0,6.863257560E0
1.347147246E1,-2.320373976E-1,-3.156716434E0,1.221734429E1,1.262070527E1
1.348148846E1,-1.455513479E0,-1.160796502E1,1.600137107E1,1.982188809E1
1.349150446E1,-1.276346020E0,-1.703075000E1,8.381004814E0,1.902410961E1
1.350152046E1,-1.867908828E0,-1.344769319E1,-8.060445249E0,1.578924676E1
1.351153646E1,-3.235006558E0,-6.379466059E0,-2.151236481E1,2.267034835E1
1.352155246E1,-8.845732158E-1,-1.983456241E0,-1.086038096E1,1.107539809E1
1.353156846E1,8.861355919E-1,6.279500306E-2,4.734736097E-1,1.006656227E0
1.354158446E1,1.196489426E0,2.726611623E0,-3.007838137E0,4.232385633E0
1.355160046E1,2.542535427E0,1.007852987E0,-1.649953279E0,3.194150883E0
1.356161646E1,-2.927060607E0,-3.877308580E0,9.128949650E0,1.034112795E1
1.357163246E1,-1.176516858E1,-1.008704342E1,2.030909670E1,2.554656622E1
1.358164846E1,-2.290609777E1,-1.829768843E1,8.818124530E0,3.061460497E1
1.359166446E1,-1.428727384E1,-1.992734837E1,-8.961702325E0,2.610627348E1
1.360168046E1,5.487126571E-1,-1.267520584E1,-6.317781442E0,1.417308332E1
1.361169646E1,-2.410760236E-1,-5.482562234E0,4.939672235E-1,5.510046272E0
1.362171246E1,-1.316149771E-1,-2.341489441E0,2.805812743E0,3.656840229E0
1.363172846E1,-6.050078952E-1,-3.064508182E0,3.589613290E0,4.758420802E0
1.364174446E1,-3.174068046E0,-3.271439390E0,-1.047785962E-1,4.559386164E0
1.365176046E1,-4.659660187E0,-4.052243823E0,2.807876226E0,6.783603906E0
1.366177646E1,-5.896431667E0,-5.971726263E0,4.633022904E0,9.586152626E0
1.367179117E1,-7.211134252E0,-8.221773437E0,3.353925184E0,1.143882991E1
1.368180717E1,-7.688525496E0,-9.470674966E0,1.939358879E0,1.235185093E1
1.369182317E1,-7.337537606E0,-8.754857072E0,2.194328180E0,1.163194122E1
1.370183917E1,-7.003330055E0,-6.886852934E0,2.698552004E0,1.018614540E1
1.371185517E1,-5.689311594E0,-5.556613712E0,2.644452980E0,8.380772871E0
1.372187117E1,-4.217398430E0,-4.729881738E0,2.428274401E0,6.786364810E0
1.373188817E1,-4.653443427E0,-4.593344575E0,2.228623269E0,6.907974507E0
1.374190417E1,-3.451121988E0,-4.360556980E0,2.266266474E0,6.005053195E0
1.375192017E1,-3.255322124E0,-3.833515273E0,2.466277210E0,5.601382397E0
1.376193617E1,-3.414981517E0,-3.874824098E0,2.260292958E0,5.637843986E0
1.377195217E1,-4.281194476E0,-4.414320374E0,1.550327542E0,6.341795171E0
1.378196817E1,-5.210017081E0,-5.286198115E0,1.711136498E0,7.616833765E0
1.379198417E1,-5.085156223E0,-6.302745911E0,9.819892904E-1,8.157678763E0
1.380200017E1,-5.010574402E0,-7.331730736E0,-1.673666078E-1,8.881899741E0
1.381201617E1,-4.899136997E0,-8.304802145E0,-1.216400658E0,9.718585934E0
1.382203217E1,-3.543222651E0,-8.877245142E0,-1.696215865E0,9.707577264E0
1.383204817E1,-2.786530380E0,-8.759581037E0,-1.858405933E0,9.378095975E0
1.384206417E1,-3.165910011E0,-8.431908334E0,-1.434520220E0,9.120192576E0
1.385208017E1,-2.355465456E0,-7.161665053E0,-3.676530397E-1,7.548035016E0
1.386209617E1,-1.431716480E0,-4.617274890E0,6.769263089E-1,4.881318338E0
1.387211217E1,-5.985516921E-1,-1.014350998E0,1.056636892E0,1.582293777E0
1.388212817E1,7.018412948E-3,2.631752243E0,1.419682764E0,2.990262242E0
1.389214417E1,3.908506984E-1,5.109917427E0,1.518732259E0,5.345144343E0
1.390216017E1,4.739671147E-1,6.471087835E0,1.387788103E0,6.635177346E0
1.391217617E1,9.690356612E-1,7.612434509E0,1.575366197E0,7.833898642E0
1.392219217E1,1.383308844E0,8.508763552E0,2.078185812E0,8.867438007E0
1.393220817E1,1.460741474E0,8.643860546E0,2.514775186E0,9.119988215E0
1.394222417E1,1.560130692E0,8.428319898E0,2.871931888E0,9.039832789E0
1.395224017E1,1.742069145E0,8.235973400E0,2.899631903E0,8.903590733E0
1.396225617E1,1.322777005E0,8.138196260E0,3.586422465E0,8.991240375E0
1.397227217E1,1.274867844E0,8.417079796E0,4.360729473E0,9.564961152E0
1.398228817E1,1.932446301E0,9.101402832E0,3.269078869E0,9.861884144E0
1.399230417E1,3.161284863E0,9.801077734E0,1.285696887E0,1.037823989E1
1.400232017E1,5.002375436E0,1.036331266E1,-7.551018280E-1,1.153222390E1
1.401233617E1,6.348444825E0,1.061307063E1,-4.059003205E0,1.301597199E1
1.402235217E1,7.258342332E0,1.068721800E1,-5.426141866E0,1.401225098E1
1.403236817E1,7.742723338E0,1.062470659E1,-4.481867993E0,1.388961106E1
1.404238417E1,8.181244631E0,1.073868286E1,-3.668526728E0,1.398964480E1
1.405240017E1,8.297507159E0,1.070710555E1,-3.307671661E0,1.394386697E1
1.406241617E1,7.883465819E0,1.052263876E1,-3.376695119E0,1.357486758E1
1.407243317E1,7.423761817E0,1.045994609E1,-3.449671878E0,1.328243004E1
1.408244917E1,6.547261267E0,1.041034649E1,-3.287331537E0,1.272982690E1
1.409246517E1,5.545257835E0,1.030625787E1,-2.854675586E0,1.204649362E1
1.410248117E1,4.564165507E0,1.013941576E1,-2.397176569E0,1.137478853E1
1.411249717E1,3.631396909E0,1.007775102E1,-1.775837401E0,1.085825528E1
1.412251317E1,2.367609246E0,1.003040495E1,-6.471645659E-1,1.032634586E1
1.413252917E1,1.272131639E0,9.502706598E0,6.847095376E-1,9.611897770E0
1.414254517E1,1.186972791E0,8.420671740E0,2.057898313E0,8.749374974E0
1.415256117E1,7.374847519E-1,7.645991095E0,1.654004815E0,7.857531134E0
1.416257717E1,3.651998404E-1,7.062348926E0,1.301960772E0,7.190635933E0
1.417259317E1,3.803280491E-1,6.562103255E0,1.347671965E0,6.709848603E0
1.418260917E1,9.657559580E-1,6.327533428E0,1.212451741E0,6.514629926E0
1.419262517E1,1.543981267E0,6.145834710E0,6.925680493E-1,6.374544136E0
1.420264117E1,1.732529705E0,5.886223598E0,3.811197621E-1,6.147726384E0
1.421265717E1,1.748404604E0,5.556975655E0,2.135197042E-1,5.829450039E0
1.422267317E1,1.520303259E0,4.972562238E0,2.931277911E-1,5.208034285E0
1.423268917E1,1.287691957E0,4.108019244E0,1.307198269E0,4.499193261E0
1.424270517E1,6.121172324E-1,2.843399815E0,2.422172247E0,3.785040080E0
1.425272117E1,-1.321459920E0,1.287808317E0,3.298224900E0,3.779284862E0
1.426273717E1,-4.722464253E0,-1.316170236E0,6.431540776E0,8.086945621E0
1.427275317E1,-7.251488811E0,-6.613519576E0,1.563116748E1,1.845687210E1
1.428276917E1,-4.150800397E0,-1.045837435E1,8.428353812E0,1.405858763E1
1.429278517E1,-1.800478737E0,-9.053892451E0,-9.879866041E0,1.352133297E1
1.430280117E1,-2.143542480E0,-7.213954949E0,-6.469014997E0,9.923914318E0
1.431281717E1,-1.210726812E0,-5.461329240E0,-1.311208289E0,5.745541198E0
1.432283317E1,5.548189044E-2,-6.290915825E0,-4.638865149E0,7.816506254E0
1.433284917E1,8.446484274E-1,-1.046440634E1,-3.656965613E0,1.111713221E1
1.434286517E1,-1.779677267E0,-1.530365089E1,6.899651320E0,1.688117799E1
1.435288117E1,-1.532161120E1,-1.942690389E1,1.070438426E1,2.695811950E1
1.436289717E1,-2.616019257E1,-1.900350700E1,8.352019581E-1,3.234480663E1
1.437291317E1,-1.744939661E1,-1.264999966E1,-9.523626181E-1,2.157338471E1
1.438292917E1,-2.951200252E0,-5.919587810E0,-2.171578710E0,6.961814193E0
1.439294517E1,3.086803615E0,-5.805372977E-1,-2.807835003E0,4.212993890E0
1.440296117E1,5.372474366E0,3.086005470E0,-2.301299482E0,6.609303283E0
1.441297817E1,7.626319892E0,4.963520104E0,1.230877486E0,9.182175467E0
1.442299417E1,8.108046262E0,6.338211613E0,2.146647352E0,1.051291755E1
1.443301017E1,5.925229204E0,5.686268118E0,1.007665291E-1,8.212925187E0
1.444302617E1,2.478409597E0,2.974831190E0,2.565205666E0,4.644611378E0
1.445304217E1,-2.585369790E-1,5.572735655E-1,2.783096603E0,2.850091559E0
1.446305817E1,-4.236811770E0,-1.774035873E0,8.615898576E-1,4.673340811E0
1.447307417E1,-7.583891911E0,-5.139164030E0,3.677158096E0,9.871571055E0
1.448309017E1,-1.205560797E1,-8.268168170E0,4.501720752E0,1.529593992E1
1.449310617E1,-1.578338687E1,-1.217368079E1,2.589647905E0,2.010025078E1
1.450312217E1,-1.652823561E1,-1.487668019E1,2.153675120E0,2.234136304E1
1.451313817E1,-1.280835863E1,-1.368306350E1,4.334134874E0,1.923707365E1
1.452315417E1,-8.215012302E0,-9.594642954E0,3.818200831E0,1.319553933E1
1.453317017E1,-3.743044229E0,-6.997440155E0,2.350294763E0,8.276378090E0
1.454318617E1,-9.665903556E-1,-5.743707656E0,2.494312562E0,6.336092622E0
1.455320217E1,-8.371867955E-1,-5.508078314E0,2.929004222E0,6.294352562E0
1.456321817E1,-1.907209718E0,-6.109560923E0,3.035438749E0,7.083648211E0
1.457323417E1,-3.003218837E0,-7.091178623E0,2.287598871E0,8.033507717E0
1.458325017E1,-4.044020884E0,-8.405254387E0,1.309282509E0,9.418950414E0
1.459326617E1,-4.832792734E0,-9.863864551E0,9.423972085E-1,1.102451006E1
1.460328217E1,-4.599197053E0,-1.091184698E1,1.367768845E0,1.192022691E1
1.461329817E1,-4.540435460E0,-1.117787190E1,2.027308312E0,1.223398355E1
1.462331417E1,-4.519908224E0,-1.073894481E1,2.810478237E0,1.198554521E1
1.463333017E1,-4.685551365E0,-8.759333700E0,3.113318692E0,1.041023879E1
1.464334617E1,-4.635702975E0,-5.592652441E0,3.255656000E0,7.960326588E0
1.465336217E1,-4.245927287E0,-1.636840898E0,2.952090491E0,5.424203621E0
1.466337817E1,-3.156562652E0,1.208363367E0,2.669847730E0,4.307216817E0
1.467339442E1,-1.883658888E0,2.710373320E0,1.900365991E0,3.808632988E0
1.468341042E1,-7.349102229E-1,4.062988667E0,9.704044944E-1,4.241421321E0
1.469342642E1,3.618663427E-1,5.244545474E0,-1.463528842E-1,5.259051592E0
1.470344242E1,1.764225123E0,5.907804501E0,-1.215118071E0,6.284198933E0
1.471345842E1,2.330251970E0,6.843771819E0,-1.999182912E0,7.500934560E0
1.472347442E1,2.526551186E0,7.940472078E0,-1.977525410E0,8.564179147E0
1.473349042E1,3.137661820E0,9.097472334E0,-7.604461831E-1,9.653351903E0
1.474350642E1,4.344091220E0,1.038982043E1,-3.655129588E-1,1.126734648E1
1.475352242E1,5.625549461E0,1.089433340E1,-3.586614838E0,1.277486254E1
1.476353842E1,5.983827660E0,1.084609855E1,-6.013813936E0,1.376989489E1
1.477355442E1,6.309516987E0,1.078904259E1,-4.677432214E0,1.334510460E1
1.478357142E1,6.747649441E0,1.094466389E1,-2.676199853E0,1.313310650E1
1.479358742E1,7.248400896E0,1.103309016E1,-1.590959551E0,1.329659905E1
1.480360342E1,7.331982166E0,1.102775750E1,-1.531742313E0,1.333100268E1
1.481361942E1,7.114208466E0,1.088087779E1,-1.543071440E0,1.309146795E1
1.482363542E1,6.913864732E0,1.084125004E1,-1.605396473E0,1.295806798E1
1.483365142E1,6.564004769E0,1.094123625E1,-1.848316708E0,1.289236534E1
1.484366742E1,5.980321085E0,1.098252929E1,-1.965391999E0,1.265871066E1
1.485368342E1,5.246524172E0,1.094935804E1,-2.278727914E0,1.235342293E1
1.486369942E1,4.282130615E0,1.089269150E1,-2.425665519E0,1.195287513E1
1.487371542E1,3.174487876E0,1.087223092E1,-2.539080307E0,1.160731267E1
1.488373142E1,2.067740346E0,1.078181894E1,-2.168130753E0,1.119035123E1
1.489374742E1,9.464800268E-1,1.047128267E1,-1.708285834E0,1.065184611E1
1.490376342E1,1.033383685E0,9.185164781E0,-8.483941537E-1,9.281966739E0
1.491377942E1,1.588052608E0,7.994979238E0,-1.117568095E-1,8.151938032E0
1.492379542E1,1.200802917E0,7.543022212E0,1.630466849E-1,7.639744496E0
1.493381142E1,9.841033512E-1,7.244416603E0,2.042711632E-1,7.313805989E0
1.494382742E1,1.028006878E0,7.196871724E0,4.782746123E-1,7.285637059E0
1.495384342E1,1.206726439E0,7.171239869E0,7.656594144E-1,7.312257127E0
1.496385942E1,1.424562412E0,7.073420044E0,6.721450406E-1,7.246683941E0
1.497387542E1,1.866293534E0,7.073018925E0,6.122278909E-1,7.340672399E0
1.498389142E1,2.291148423E0,7.067640656E0,5.417082775E-1,7.449453228E0
1.499390742E1,2.545870386E0,6.937981573E0,-5.525618792E-4,7.390334541E0
1.500392342E1,2.649012931E0,6.562421928E0,-5.338035728E-1,7.097013268E0
1.501393942E1,2.529088000E0,6.119370797E0,1.077540980E-1,6.622280272E0
1.502395542E1,2.615438511E0,4.998748993E0,3.652900629E0,6.720988998E0
1.503397142E1,3.457453938E0,2.899217336E0,8.619851879E0,9.729403646E0
1.504398742E1,5.642323369E0,-1.375920010E-1,8.499034955E0,1.020236932E1
1.505400342E1,5.507430443E0,-2.779421335E0,2.974315757E0,6.848614989E0
1.506401942E1,2.156892843E0,-4.372647268E0,-3.216358911E0,5.840992681E0
1.507403542E1,-1.466658856E0,-6.874901810E0,-2.756500250E0,7.550738820E0
1.508405142E1,-6.547774068E0,-1.162542480E1,-2.976386257E0,1.367050556E1
1.509406742E1,-1.073459565E1,-1.712428206E1,-8.559086444E0,2.194836077E1
1.510408342E1,-9.030219414E0,-2.049054750E1,-1.150361210E1,2.517420288E1
1.511409942E1,-3.420662087E0,-1.548713652E1,-3.991999083E0,1.635507210E1
1.512411542E1,-3.966742328E0,-6.577633460E0,6.435305214E0,1.002065167E1
1.513413142E1,-6.179895326E0,-2.147698097E0,7.483151987E0,9.939883149E0
1.514414742E1,-1.167696450E1,-2.822899477E0,4.221196196E0,1.273337185E1
1.515416342E1,-1.432080645E1,-5.995062500E0,6.153129112E0,1.669991825E1
1.516417942E1,-6.872938900E0,-5.252703509E0,7.614251239E0,1.152410540E1
1.517419642E1,1.492431629E-1,-2.578985215E0,1.631223771E0,3.055213454E0
1.518421242E1,2.286603382E0,4.173391700E-2,-1.372182762E0,2.667054982E0
1.519422842E1,2.145703611E0,1.782312022E0,-4.385318184E-1,2.823648400E0
1.520424442E1,1.368671801E0,2.015796606E0,-7.407507142E-1,2.546646830E0
1.521426042E1,-4.846020305E-1,2.512937990E0,7.619313759E-1,2.670250156E0
1.522427642E1,-1.618312241E0,2.466519869E0,-4.460320419E-1,2.983554819E0
1.523429242E1,-2.591267291E0,1.664793513E0,-1.016680236E0,3.243430640E0
1.524430842E1,-3.627993829E0,4.701711023E-1,4.518967992E-1,3.686137654E0
1.525432442E1,-4.685438222E0,-9.085427070E-1,2.128038003E0,5.225641293E0
1.526434042E1,-5.944633189E0,-2.487002081E0,1.058217979E0,6.530211971E0
1.527435642E1,-6.265111477E0,-3.932120964E0,1.319399946E0,7.513588578E0
1.528437242E1,-6.509751964E0,-5.419285421E0,3.163914064E0,9.041895670E0
1.529438842E1,-6.478193371E0,-6.358166406E0,3.179059522E0,9.617675855E0
1.530440442E1,-5.650161561E0,-6.468975821E0,2.982037590E0,9.092003191E0
1.531442042E1,-4.891276000E0,-5.804072556E0,3.151966448E0,8.218681868E0
1.532443642E1,-5.246607787E0,-5.477555848E0,3.348643394E0,8.291195566E0
1.533445242E1,-5.816997827E0,-5.229547366E0,3.504607054E0,8.571341784E0
1.534446842E1,-6.569312287E0,-5.284315896E0,3.706827160E0,9.209800541E0
1.535448442E1,-7.282963788E0,-5.799263806E0,3.546484228E0,9.962458161E0
1.536450042E1,-7.823036599E0,-6.266140587E0,3.285300507E0,1.054787272E1
1.537451642E1,-8.389497895E0,-6.832686083E0,3.580764699E0,1.139697986E1
1.538453242E1,-7.992796472E0,-7.026124256E0,3.494767359E0,1.120109889E1
1.539454842E1,-6.915403719E0,-6.832341682E0,3.580733709E0,1.035979514E1
1.540456442E1,-5.620891569E0,-6.821211507E0,4.472885793E0,9.906061567E0
1.541458042E1,-4.850822039E0,-7.133873237E0,5.137097039E0,1.004053723E1
1.542459642E1,-3.596668541E0,-7.734161845E0,4.280010415E0,9.543153210E0
1.543461242E1,-2.660256835E0,-8.324232443E0,3.389791127E0,9.373392986E0
1.544462842E1,-2.032678102E0,-8.349531591E0,2.072194463E0,8.839708589E0
1.545464442E1,-2.327992898E0,-8.276032675E0,3.230721134E-1,8.603292588E0
1.546466042E1,-3.555077296E0,-8.711065519E0,2.750106320E-2,9.408612723E0
1.547467642E1,-5.707954271E0,-9.137113532E0,-1.315506870E0,1.085348534E1
1.548469242E1,-7.160440646E0,-9.538569326E0,-3.610310387E0,1.246156315E1
1.549470842E1,-6.904620869E0,-1.015923080E1,-4.525831161E0,1.309071837E1
1.550472442E1,-7.042373668E0,-1.037954921E1,-3.563569792E0,1.303952063E1
1.551474042E1,-6.569590614E0,-9.198462519E0,6.738185138E-3,1.130359584E1
1.552475642E1,-4.521725539E0,-4.494445354E0,4.364145416E-1,6.390344165E0
1.553477242E1,-3.165285821E0,6.773473084E-1,-2.821515441E-2,3.237071176E0
1.554478842E1,-1.677366781E0,2.660694206E0,2.851599365E-1,3.158190806E0
1.555480442E1,1.260840958E-1,2.980709395E0,6.461500740E-1,3.052545760E0
1.556482142E1,8.015211189E-1,3.921300691E0,3.914370279E-1,4.021474625E0
1.557483742E1,1.494860270E0,4.903626489E0,7.095249747E-1,5.175286046E0
1.558485342E1,2.278774253E0,5.616029025E0,1.580523587E0,6.263437468E0
1.559486942E1,3.071659911E0,6.104762113E0,1.401959561E0,6.976295986E0
1.560488542E1,3.731829270E0,6.646047052E0,4.900715160E-1,7.637844016E0
1.561490142E1,3.215447330E0,8.071076072E0,1.040808479E0,8.750123015E0
1.562491742E1,2.866836917E0,9.681921419E0,1.878814470E0,1.027074973E1
1.563493342E1,3.897520065E0,1.080145389E1,1.373104283E0,1.156492473E1
1.564494942E1,5.780596570E0,1.133872179E1,-5.490202206E-1,1.273904752E1
1.565496542E1,7.318751087E0,1.143549555E1,-3.408758910E0,1.399836823E1
1.566498133E1,8.362627015E0,1.130754911E1,-6.133222851E0,1.534309682E1
1.567499733E1,9.135566359E0,1.078185753E1,-7.027059225E0,1.578247718E1
1.568501333E1,9.434014093E0,1.031160573E1,-6.363267517E0,1.535646470E1
1.569502933E1,9.356409262E0,1.011648999E1,-5.333541266E0,1.477607615E1
1.570504533E1,9.603275784E0,1.050466676E1,-4.713472989E0,1.499292357E1
1.571506133E1,9.929016566E0,1.093227715E1,-4.308548628E0,1.538387614E1
1.572507733E1,9.978579905E0,1.149249187E1,-4.156866591E0,1.577748288E1
1.573509333E1,9.707741554E0,1.215983693E1,-4.125946807E0,1.609736988E1
1.574510933E1,9.223983861E0,1.270347245E1,-4.182226258E0,1.624657216E1
1.575512533E1,8.765546951E0,1.319116181E1,-3.729492722E0,1.627116096E1
1.576514133E1,7.682678865E0,1.343111516E1,-3.185192374E0,1.579759031E1
1.577515733E1,5.816504906E0,1.275190026E1,-3.273537663E0,1.439301005E1
1.578517333E1,3.915610766E0,1.138601173E1,-3.720651440E0,1.260224257E1
1.579518933E1,3.205362344E0,9.812432442E0,-3.792710479E0,1.099740110E1
1.580520533E1,3.518575467E0,8.569391577E0,-3.350213664E0,9.850826205E0
1.581522133E1,3.309379633E0,8.105602126E0,-2.914817707E0,9.227618417E0
1.582523733E1,3.066781579E0,7.876851448E0,-2.398803411E0,8.786591819E0
1.583525333E1,3.118788469E0,7.719725069E0,-1.828966518E0,8.524442221E0
1.584526933E1,3.341046984E0,7.803206352E0,-1.607949221E0,8.639335913E0
1.585528533E1,3.355882832E0,7.791918302E0,-1.091364090E0,8.553772033E0
1.586530133E1,3.160910934E0,7.721459938E0,-5.649458434E-1,8.362503532E0
1.587531733E1,2.883878042E0,7.698032484E0,-5.873718157E-2,8.220699894E0
1.588533333E1,2.579690681E0,7.726510178E0,4.736504880E-1,8.159540939E0
1.589534933E1,2.409669145E0,7.777441766E0,7.326944205E-1,8.175080851E0
1.590536533E1,2.529737333E0,7.902431847E0,5.898779324E-1,8.318410669E0
1.591538133E1,2.681165601E0,8.231593251E0,4.206843621E-1,8.667453592E0
1.592539733E1,2.750341963E0,8.461332693E0,3.842632252E-1,8.905402298E0
1.593541333E1,3.034848473E0,8.503029188E0,4.235635310E-2,9.028488505E0
1.594542933E1,3.437333961E0,8.204679687E0,-4.089064617E-1,8.905011961E0
1.595544533E1,3.593858369E0,7.118497399E0,6.483085737E-1,8.000570430E0
1.596546133E1,3.459732890E0,5.068099310E0,4.486770299E0,7.601742563E0
1.597547733E1,3.150256430E0,2.216399372E0,9.226772398E0,9.998493419E0
1.598549333E1,3.425883066E0,-2.338819603E0,9.599003223E0,1.045694099E1
1.599551033E1,2.074135446E0,-2.358418885E0,-1.394645016E1,1.429572137E1
1.600552533E1,-5.484150338E-1,-3.137954473E0,-1.367969667E1,1.404569751E1
1.601554233E1,-6.296836715E0,-1.688463977E1,9.109359723E0,2.019211845E1
1.602555833E1,-4.978248070E0,-2.432882358E1,2.088881247E0,2.492063473E1
1.603557433E1,-9.428582615E-1,-2.695178161E1,-2.628082238E0,2.709602055E1
1.604559033E1,-2.782309275E0,-3.660624099E1,1.239905237E1,3.874912417E1
1.605560633E1,-1.901720586E1,-3.740505251E1,1.895715496E1,4.604525813E1
1.606562233E1,-4.812978859E1,-3.487666735E1,8.005516505E0,5.997455101E1
1.607563833E1,-5.270537517E1,-3.455945824E1,1.529940932E0,6.304405955E1
1.608565433E1,-1.597481302E1,-2.274494617E1,-7.031151692E0,2.866992015E1
1.609567033E1,7.888788539E-1,-1.636325525E1,-9.491444276E0,1.893319747E1
1.610568633E1,5.119307470E0,-3.131120832E0,3.368692034E-1,6.010383307E0
1.611570233E1,1.123695685E1,3.726860306E0,-1.777876909E0,1.197161364E1
1.612571833E1,1.384515534E1,7.645038584E0,-7.837268722E0,1.765099777E1
1.613573433E1,1.361190406E1,1.180922618E1,-7.392842910E0,1.947808721E1
1.614575033E1,1.293918423E1,1.547698575E1,-3.763455105E0,2.052128580E1
1.615576633E1,1.292187180E1,1.921356004E1,-1.321522778E0,2.319228498E1
1.616578233E1,1.081468730E1,1.992943231E1,4.585903993E-1,2.267928656E1
1.617579833E1,5.802174550E0,1.774732160E1,1.707802123E0,1.874964644E1
1.618581433E1,1.277669830E0,1.158609877E1,1.115981161E0,1.170963445E1
1.619583033E1,-2.769627249E-1,6.218820825E0,-1.691908514E0,6.450813532E0
1.620584633E1,-4.982529987E0,3.164617776E0,-1.952521839E0,6.217133766E0
1.621586233E1,-9.360711059E0,3.219476938E-3,-1.548965726E0,9.488003832E0
1.622587833E1,-1.361735366E1,-4.059976766E0,-1.591846866E0,1.429859114E1
1.623589433E1,-1.447278962E1,-7.580223368E0,3.201166382E0,1.664839007E1
1.624591033E1,-1.213856359E1,-1.045494672E1,4.543704053E0,1.665220356E1
1.625592633E1,-1.122712066E1,-1.207277189E1,3.750879498E0,1.690766561E1
1.626594233E1,-8.403727094E0,-1.068484403E1,3.696755916E0,1.408738888E1
1.627595833E1,-5.478368611E0,-5.762274320E0,1.420970175E0,8.076848657E0
1.628597433E1,-4.260350322E0,-5.133656538E-1,4.889637610E-1,4.318936758E0
1.629599033E1,-2.255052976E0,1.431215959E0,1.775353543E0,3.207105120E0
1.630600633E1,-7.608630896E-1,1.598224132E0,3.391607273E0,3.825732990E0
1.631602233E1,-1.394274420E-1,8.557680774E-1,3.722284859E0,3.821934535E0
1.632603833E1,-1.542063965E0,-1.681234129E0,2.642703493E0,3.491187652E0
1.633605433E1,-3.245140952E0,-4.567323881E0,4.065453853E0,6.922376923E0
1.634607033E1,-5.401690564E0,-7.334679487E0,2.965327710E0,9.579611294E0
1.635608633E1,-7.028037465E0,-9.805046239E0,2.758347970E0,1.237500408E1
1.636610233E1,-8.548647995E0,-1.181256611E1,2.351875851E0,1.476981451E1
1.637611833E1,-8.632225172E0,-1.322827759E1,4.021681012E0,1.629958765E1
1.638613433E1,-7.730005644E0,-1.337010766E1,4.817464258E0,1.617778501E1
1.639615033E1,-6.453290665E0,-1.221383245E1,3.811534420E0,1.433005437E1
1.640616633E1,-4.949234771E0,-1.098560259E1,2.026942422E0,1.221830122E1
1.641618233E1,-3.845998494E0,-1.056422767E1,1.504767792E-1,1.124354277E1
1.642619933E1,-3.962349899E0,-1.072668788E1,6.613200903E-4,1.143512352E1
1.643621533E1,-4.778408366E0,-1.147095306E1,-5.167564541E-1,1.243716157E1
1.644623133E1,-6.773272524E0,-1.312891235E1,-1.875677438E0,1.489173348E1
1.645624733E1,-7.975968186E0,-1.427794636E1,-3.386591239E0,1.670164126E1
1.646626333E1,-6.684023548E0,-1.374376812E1,-2.913434256E0,1.555813074E1
1.647627933E1,-5.125179829E0,-9.581674415E0,-1.743819802E0,1.100531055E1
1.648629533E1,-2.448882328E0,-2.056514862E0,-1.153771423E0,3.399627410E0
1.649631133E1,-1.096357613E0,7.396347731E-1,-1.414035085E0,1.936118497E0
1.650632733E1,3.931024611E-2,1.170858741E0,-1.517469260E0,1.917072884E0
1.651634333E1,9.233972660E-1,1.717993820E0,-1.400082020E0,2.400915438E0
1.652635933E1,1.103265806E0,2.186609563E0,-7.611829323E-1,2.564733178E0
1.653637533E1,1.505210719E-1,2.768774140E0,9.731404066E-2,2.774569671E0
1.654639133E1,-5.270080850E-1,3.420208343E0,9.693536036E-1,3.593773649E0
1.655640733E1,-1.776363650E-1,3.941151404E0,8.755082774E-1,4.041131501E0
1.656642333E1,-2.447425202E-1,4.959693686E0,3.098848879E-1,4.975388327E0
1.657643933E1,3.248628232E-1,6.142814623E0,-5.336426282E-1,6.174502555E0
1.658645533E1,2.737365822E0,6.797989290E0,-1.241441651E0,7.432833067E0
1.659647133E1,4.605693895E0,7.382717287E0,-1.813309574E0,8.888476945E0
1.660648733E1,6.344055905E0,8.379658200E0,-2.485460170E0,1.080014950E1
1.661650333E1,8.367860273E0,9.787094702E0,-3.173230433E0,1.326188899E1
1.662651933E1,1.032997535E1,1.202407393E1,-3.336537611E0,1.619935887E1
1.663653533E1,1.251295262E1,1.442984416E1,-4.076776986E0,1.952983605E1
1.664655133E1,1.389557120E1,1.505576637E1,-5.080076746E0,2.110853334E1
1.665656733E1,1.428337491E1,1.448696327E1,-5.163614747E0,2.098927871E1
