"Time (s)","Linear Acceleration x (m/s^2)","Linear Acceleration y (m/s^2)","Linear Acceleration z (m/s^2)","Absolute acceleration (m/s^2)"
2.288341666E-2,-7.837344736E-2,1.069426507E-1,-3.388476089E0,3.391069054E0
3.290041667E-2,-4.166364808E-1,4.907983249E-1,-3.662510528E0,3.718662706E0
4.291841667E-2,-5.227805480E-1,7.629984927E-1,-3.585254191E0,3.702636063E0
5.293541666E-2,-6.916260628E-1,1.079348062E0,-3.282735626E0,3.524158345E0
6.295241667E-2,-8.169348179E-1,1.529859656E0,-2.783509709E0,3.279600488E0
7.297041666E-2,-8.455336958E-2,1.838048267E0,-2.131100190E0,2.815521040E0
8.298741667E-2,1.065577723E0,1.803155592E0,-1.102803583E0,2.367066057E0
9.300441666E-2,1.969067851E0,1.699033638E0,-4.209644437E-1,2.634607100E0
1.030224167E-1,2.732744182E0,1.120954510E0,4.047413439E-1,2.981316041E0
1.130394167E-1,2.664891922E0,9.409614247E-1,1.496442234E0,3.197873781E0
1.230564167E-1,2.105681321E0,6.165409434E-1,2.270572071E0,3.157453735E0
1.330744167E-1,1.846739568E0,1.607627624E-1,3.396455199E0,3.869392668E0
1.430914167E-1,1.852130993E0,2.873421174E-1,4.146115608E0,4.550080147E0
1.531084167E-1,1.575663820E0,1.748083591E-1,4.161121902E0,4.452887818E0
1.631264167E-1,1.369653256E0,1.638541853E-1,3.882057688E0,4.119850741E0
1.731434167E-1,1.650197108E0,2.873467952E-1,3.401852764E0,3.791875645E0
1.831604167E-1,2.289424664E0,4.071305162E-1,2.909619532E0,3.724661914E0
1.931784167E-1,2.911224885E0,5.232731760E-1,2.314938989E0,3.756060126E0
2.031954167E-1,3.324580640E0,5.822973096E-1,1.774275609E0,3.813130017E0
2.132124167E-1,3.421454093E0,5.065755746E-1,1.232145163E0,3.671668370E0
2.232304167E-1,3.213185042E0,2.428462681E-1,6.429183179E-1,3.285860068E0
2.332474167E-1,2.748298945E0,-1.373326769E-1,2.122790712E-1,2.759903941E0
2.432644167E-1,1.904609754E0,-2.985564923E-1,4.838103175E-2,1.928474790E0
2.532824167E-1,8.125586155E-1,-1.617357391E-1,-3.727307618E-2,8.293366235E-1
2.632994167E-1,-3.983766496E-2,-4.476306707E-2,-1.704282099E-1,1.806558785E-1
2.733164167E-1,-2.411882901E-1,-4.239561716E-1,-3.124681878E-1,5.792641842E-1
2.833344167E-1,1.181301284E-1,-1.148470922E0,-4.403678441E-1,1.235663394E0
2.933514167E-1,6.094684437E-1,-1.736771276E0,-5.598632973E-1,1.923869320E0
3.033684167E-1,9.243018302E-1,-1.879825453E0,-5.779861575E-1,2.173049840E0
3.133864167E-1,1.199982553E0,-1.577229997E0,-4.366373205E-1,2.029350817E0
3.234034167E-1,1.592190098E0,-9.956478015E-1,-1.895082593E-3,1.877867792E0
3.334204167E-1,1.715456128E0,-4.468430507E-1,5.317908150E-1,1.850745771E0
3.434384167E-1,1.633774326E0,-2.801757699E-1,8.230786335E-1,1.850722953E0
3.534554167E-1,1.857802500E0,1.547737518E-1,1.180361636E0,2.206499181E0
3.634724167E-1,1.960760566E0,7.453860945E-1,1.749476983E0,2.731456048E0
3.734904167E-1,1.735376422E0,9.445247179E-1,1.749344836E0,2.638913721E0
3.835074167E-1,1.401290494E0,5.924346274E-1,1.307516942E0,2.006039478E0
3.935244167E-1,8.936752841E-1,7.560771435E-2,4.138115448E-1,9.877307500E-1
4.035424167E-1,1.075557312E-1,-3.354711342E-1,-5.957605237E-1,6.921269528E-1
4.135594167E-1,-7.111933315E-1,-1.974025851E-1,-1.673211164E0,1.828769897E0
4.235764167E-1,-1.065400699E0,3.438922942E-1,-2.543087404E0,2.778602905E0
4.335944167E-1,-8.350788742E-1,8.006411129E-1,-2.703554297E0,2.940678281E0
4.436114167E-1,-2.131301335E-1,7.810348141E-1,-2.719856919E0,2.837791658E0
4.536284167E-1,6.889031607E-1,6.936025679E-1,-3.107232032E0,3.257385914E0
4.636464167E-1,1.530749602E0,4.278524637E-1,-3.699194205E0,4.026200422E0
4.736634167E-1,1.809992449E0,-1.409997582E-2,-3.770558887E0,4.182509509E0
4.836804167E-1,1.731040127E0,-1.630341133E-1,-3.686498145E0,4.075947573E0
4.936984167E-1,9.823433393E-1,1.077416727E-1,-3.128022977E0,3.280416810E0
5.037154167E-1,1.652692115E-1,3.286301842E-1,-2.259474056E0,2.289221422E0
5.137324167E-1,-4.849133947E-1,2.915974286E-1,-9.693736303E-1,1.122432758E0
5.237494167E-1,-1.145546145E0,2.973809096E-1,5.792976880E-1,1.317686301E0
5.337674167E-1,-3.697817186E-1,3.459619161E-1,1.455658489E0,1.541223477E0
5.437844167E-1,3.814401895E-1,-6.230237514E-2,1.954494982E0,1.992342550E0
5.538014167E-1,6.402744994E-1,-5.995688152E-1,4.983330470E-1,1.008845887E0
5.638194167E-1,5.004944703E-1,-4.704827589E-1,-6.372816020E-1,9.370040456E-1
5.738364167E-1,-8.194951674E-1,-4.301287848E-1,-1.702328544E0,1.937654658E0
5.838534167E-1,-1.694288038E0,-5.687352777E-1,-2.513716840E0,3.084289889E0
5.938714167E-1,-2.314670894E0,-3.447281536E-1,-3.007658043E0,3.810845805E0
6.038884167E-1,-2.540209697E0,-1.329022416E-1,-2.863855714E0,3.830404399E0
6.139054167E-1,-1.814962582E0,2.221941948E-3,-7.452299738E-1,1.962004543E0
6.239234167E-1,-1.081405697E0,-2.681468779E-1,1.445759153E0,1.825256300E0
6.339404167E-1,-1.434257680E-1,-4.901443139E-1,2.646958512E0,2.695774798E0
6.439574167E-1,1.294216865E-1,-5.005473876E-1,2.620019220E0,2.670542711E0
6.539754167E-1,-4.334643289E-1,-8.742502490E-1,2.063289446E0,2.282404031E0
6.639924167E-1,-1.187626509E0,-1.324859199E0,1.928240399E0,2.623703424E0
6.740094167E-1,-1.787097676E0,-1.773345610E0,1.805089851E0,3.097873807E0
6.840274167E-1,-1.889551712E0,-1.854181612E0,1.553922703E0,3.069702084E0
6.940444167E-1,-1.317871776E0,-1.392554461E0,1.703058861E0,2.564449928E0
7.040614167E-1,-6.379432145E-1,-1.042532823E0,1.925167102E0,2.280375979E0
7.140794167E-1,-2.086318704E-1,-8.221734846E-1,1.879309729E0,2.061868462E0
7.240964167E-1,3.508776703E-1,-3.714999229E-1,-2.411684096E-2,5.115749742E-1
7.341134167E-1,1.666397404E0,1.036839974E0,-6.783113973E0,7.061342125E0
7.441314167E-1,1.564804956E0,1.272434818E0,-7.593111216E0,7.856401393E0
7.541484167E-1,-4.154680610E-1,-1.840217876E0,-3.193465015E0,3.709074594E0
7.641654167E-1,-2.319841587E0,-3.579783829E0,-1.386105859E-1,4.267989005E0
7.741834167E-1,-2.058005609E0,-3.757597072E0,1.000014794E0,4.399426375E0
7.842001667E-1,-8.146086493E-1,-3.445436448E0,1.063616129E0,3.696741651E0
7.942171667E-1,5.442263809E-1,-2.761180654E0,-2.403012675E-1,2.824543442E0
8.042351667E-1,1.462919854E0,-2.457915399E0,-1.613025189E0,3.283798543E0
8.142521667E-1,1.153998587E0,-2.419638940E0,-2.014088634E0,3.353046133E0
8.242691667E-1,5.959783325E-1,-2.447547701E0,-1.718772669E0,3.049567085E0
8.342871667E-1,4.143079734E-1,-2.476548429E0,-1.015252054E0,2.708446039E0
8.443041667E-1,1.289556050E0,-2.034616162E0,-4.772210902E-1,2.455678664E0
8.543211667E-1,2.438839442E0,-2.125670758E0,-3.182288647E-1,3.250797380E0
8.643391667E-1,3.218044078E0,-2.252438101E0,-7.427969474E-1,3.997628346E0
8.743561667E-1,3.757637418E0,-2.090522706E0,-1.141065423E0,4.448837427E0
8.843731667E-1,3.932195224E0,-2.123545295E0,-1.924129221E0,4.865580865E0
8.943911667E-1,3.880005900E0,-2.074211314E0,-2.932666333E0,5.287469166E0
9.044081667E-1,3.229298506E0,-2.327673056E0,-3.002981440E0,4.986414366E0
9.144251667E-1,1.983945653E0,-3.361207598E0,-2.873881935E0,4.846953089E0
9.244431667E-1,1.351656988E0,-3.952642937E0,-3.177212679E0,5.248337185E0
9.344601667E-1,1.406002765E0,-3.818346719E0,-3.522194309E0,5.381678938E0
9.444771667E-1,5.106350040E-1,-3.510625593E0,-3.629712326E0,5.075436112E0
9.544951667E-1,-3.065548986E-1,-3.536400997E0,-3.315919744E0,4.857512909E0
9.645121667E-1,-1.201117498E-1,-3.473274457E0,-2.549384855E0,4.310153759E0
9.745291667E-1,7.577032542E-1,-3.220718887E0,-1.537916535E0,3.648606808E0
9.845471667E-1,1.338356912E0,-2.799040790E0,-3.425749165E-1,3.121407718E0
9.945641667E-1,1.318996196E0,-2.316613193E0,9.634433842E-1,2.834549489E0
1.004581167E0,1.605613258E0,-1.917432698E0,1.456613925E0,2.894177985E0
1.014599167E0,1.579319499E0,-2.136478898E0,2.049279517E0,3.355344796E0
1.024616167E0,1.003440093E0,-3.229406972E0,2.695428421E0,4.324499484E0
1.034633167E0,4.699173331E-1,-4.176459734E0,2.774756427E0,5.036160386E0
1.044651167E0,3.202373832E-1,-4.186558752E0,2.580385623E0,4.928307634E0
1.054668167E0,2.185040170E-1,-3.826731041E0,2.465567942E0,4.557481733E0
1.064685167E0,-6.430896413E-1,-3.664148918E0,2.699979894E0,4.596677388E0
1.074703167E0,-1.197589872E0,-3.514226601E0,3.283243164E0,4.956177537E0
1.084720167E0,-6.553652859E-1,-3.053159029E0,3.578984807E0,4.749780622E0
1.094737167E0,-2.198085308E-1,-2.689629153E0,3.795941650E0,4.657423513E0
1.104755167E0,-5.274147588E-1,-3.306363055E0,4.498923152E0,5.608075651E0
1.114772167E0,-1.173818602E0,-4.388606950E0,4.791358194E0,6.602638444E0
1.124789167E0,-1.906026827E0,-4.717939678E0,4.712148303E0,6.935144893E0
1.134807167E0,-2.502982521E0,-4.414812417E0,4.697944247E0,6.915646775E0
1.144824167E0,-3.139783482E0,-4.183854707E0,4.233312796E0,6.729325208E0
1.154841167E0,-3.592305349E0,-4.086479271E0,3.748671005E0,6.607306929E0
1.164859167E0,-3.652814675E0,-4.010091246E0,3.587305979E0,6.503280021E0
1.174876167E0,-3.621920911E0,-4.184813651E0,3.846642272E0,6.740002459E0
1.184893167E0,-3.713848497E0,-3.964901040E0,4.193203236E0,6.862657232E0
1.194911167E0,-4.032767333E0,-3.158334358E0,4.482124102E0,6.806447292E0
1.204928167E0,-4.564852263E0,-2.206067342E0,4.735031381E0,6.937227939E0
1.214945167E0,-5.249241958E0,-1.412150527E0,4.723847997E0,7.201628298E0
1.224963167E0,-5.926612070E0,-9.697285563E-1,4.302043308E0,7.387332450E0
1.234980167E0,-6.665982549E0,-6.127297282E-1,2.331205359E0,7.088390472E0
1.244998167E0,-6.319511633E0,-4.408210033E-1,1.745247400E0,6.570878094E0
1.255015167E0,-5.671159497E0,-2.114680624E-1,1.383918708E0,5.841403922E0
1.265032167E0,-5.732424284E0,4.444468617E-2,1.747353274E0,5.992988150E0
1.275050167E0,-5.697628673E0,3.310740280E-1,2.047699892E0,6.063469086E0
1.285067167E0,-5.201145101E0,5.353751582E-1,1.976759717E0,5.589822528E0
1.295084167E0,-4.630837507E0,7.418725026E-1,1.499237788E0,4.923692189E0
1.305102167E0,-4.216630105E0,6.141149336E-1,1.654592168E0,4.571081036E0
1.315119167E0,-3.379475177E0,3.890585268E-1,1.592094350E0,3.755926441E0
1.325136167E0,-2.669538997E0,2.630299795E-1,1.276603298E0,2.970747247E0
1.335154167E0,-2.771833988E0,2.120785117E-2,1.275507529E0,3.051300197E0
1.345171167E0,-3.138476045E0,-3.735815316E-1,1.142925934E0,3.360933611E0
1.355188167E0,-2.555026541E0,3.761507982E-1,3.219055208E-1,2.602551289E0
1.365206167E0,-1.805289826E0,2.054030964E0,-7.017378721E-1,2.823216357E0
1.375223167E0,-1.431164211E0,2.874561381E0,-6.800130540E-1,3.282339392E0
1.385240167E0,-9.509303427E-1,3.028726730E0,-3.870225263E-1,3.198005716E0
1.395258167E0,-3.137373260E-1,3.302305672E0,-3.055567789E-1,3.331218816E0
1.405275167E0,-2.000841182E-1,3.435319303E0,-9.611419201E-2,3.442483160E0
1.415292167E0,-3.728602776E-1,3.570122182E0,2.156289776E-1,3.596010711E0
1.425310167E0,-6.376982161E-1,4.034655399E0,1.122812682E0,4.236249700E0
1.435327167E0,-1.005627244E0,4.693031416E0,4.949316486E-1,4.825016825E0
1.445344167E0,-1.808853119E0,4.848677280E0,1.163725723E0,5.304326397E0
1.455362167E0,-2.713891297E0,4.557580665E0,2.799655041E0,5.997900953E0
1.465379167E0,-3.098130549E0,4.822709795E0,1.904423959E0,6.040179905E0
1.475396167E0,-3.477398498E0,5.332072445E0,1.832028558E0,6.624169798E0
1.485414167E0,-3.833658530E0,5.605533273E0,3.865739279E0,7.814274193E0
1.495431167E0,-4.068056449E0,6.084177575E0,5.082997431E0,8.910845241E0
1.505448167E0,-3.916624965E0,6.362648297E0,5.128307505E0,9.062162122E0
1.515466167E0,-3.654857400E0,6.010757596E0,4.715464844E0,8.468931349E0
1.525483167E0,-3.308748134E0,5.174163709E0,2.781262331E0,6.742047497E0
1.535500167E0,-2.209827102E0,4.130375488E0,1.436613962E0,4.899713989E0
1.545518167E0,-2.277912666E0,3.039102615E0,6.632694789E-1,3.855509981E0
1.555535167E0,-2.755941256E0,2.306327210E0,2.237656925E0,4.233375240E0
1.565552167E0,-2.999912821E0,2.077673596E0,3.547350200E0,5.089194234E0
1.575570167E0,-2.940223274E0,1.673125210E0,3.355945104E0,4.765147261E0
1.585587167E0,-1.389950988E0,9.189963591E-1,1.832779341E0,2.477013962E0
1.595605167E0,1.730787528E-1,1.571503526E-1,5.656842005E-1,6.120874960E-1
1.605622167E0,7.730720758E-2,-5.853296757E-1,-9.508274317E-1,1.119222962E0
1.615639167E0,1.326016363E0,-1.395704064E0,-1.240738231E0,2.290358179E0
1.625657167E0,3.198010640E0,-2.023658187E0,-4.641964173E-1,3.812865435E0
1.635674167E0,3.321827186E0,-2.156507512E0,9.408053041E-2,3.961554196E0
1.645691167E0,1.291499664E0,-3.116296386E0,2.172730027E0,4.012484308E0
1.655709167E0,-8.446829259E-1,-4.302002378E0,4.500033538E0,6.282596243E0
1.665726167E0,-1.489674667E0,-2.904589173E0,2.946482134E0,4.397445376E0
1.675743167E0,-2.271432781E0,5.084826440E-1,-6.644179451E-1,2.420622375E0
1.685761167E0,-1.505483199E0,-6.330452943E-1,-5.798859179E-1,1.733059054E0
1.695778167E0,-9.288863397E-1,2.205110738E-1,-3.306375918E0,3.441449793E0
1.705795167E0,-6.503343415E-1,-8.316079670E-1,-4.456658308E0,4.579990157E0
1.715813167E0,1.068666369E0,-2.574534899E0,-2.327079563E0,3.631194989E0
1.725830167E0,6.760603362E-1,-2.956091156E0,-1.088696591E0,3.221923768E0
1.735847167E0,-1.426883172E0,-1.438511530E0,-1.488184211E0,2.513961665E0
1.745865167E0,-2.459195647E0,-1.296357531E0,-3.779456595E0,4.691745755E0
1.755882167E0,-2.982197512E0,-2.148659379E0,-4.041498395E0,5.462961505E0
1.765899167E0,-1.510053383E0,-1.703323740E0,-4.905482980E0,5.407895732E0
1.775918708E0,3.487332040E-1,-2.516600102E0,-3.869525936E0,4.629051942E0
1.785935708E0,6.534082228E-1,-1.621166560E0,-3.202308344E0,3.648273845E0
1.795952708E0,1.843867416E0,-1.290572588E0,-3.352916247E0,4.038251108E0
1.805970708E0,2.282300416E0,-6.906187338E-1,-3.548223190E0,4.275013126E0
1.815987708E0,2.701497247E0,-8.554043806E-1,-2.593985662E0,3.841687864E0
1.826004708E0,3.747877538E0,-1.297150706E0,-5.730031604E-1,4.007183376E0
1.836022708E0,4.706447268E0,-1.293347677E0,5.576384318E-1,4.912672869E0
1.846039708E0,5.112283210E0,-1.308085584E0,8.970330477E-1,5.352681179E0
1.856057708E0,5.166124372E0,-1.355648298E0,1.254681501E0,5.486424063E0
1.866074708E0,5.058214592E0,-1.307139797E0,1.182827407E0,5.356606200E0
1.876091708E0,4.565666780E0,-9.088160643E-1,8.528117251E-1,4.732710389E0
1.886109708E0,3.889502363E0,-1.815461057E-1,6.461360407E-1,3.946983583E0
1.896126708E0,4.032890124E0,1.018496674E0,-9.747308493E-2,4.160653702E0
1.906143708E0,4.095638934E0,3.264503130E0,-1.023214792E0,5.336497679E0
1.916161708E0,3.623544098E0,2.022776720E0,7.758546196E-2,4.150628506E0
1.926178708E0,4.135229847E0,1.356104088E0,-2.875018195E-1,4.361399028E0
1.936195708E0,3.956765224E0,1.792047637E0,-7.479348958E-1,4.407588045E0
1.946213708E0,3.844027398E0,1.727424501E0,-3.093959145E-1,4.225667743E0
1.956230708E0,3.950605767E0,1.400835580E0,9.706682038E-1,4.302536811E0
1.966247708E0,3.847962574E0,4.189752209E-1,2.027211248E0,4.369432646E0
1.976265708E0,2.569557164E0,-1.150250230E0,-5.656820078E-1,2.871531951E0
1.986282708E0,3.902317121E0,-2.871415579E-1,1.753797783E-1,3.916795534E0
1.996299708E0,2.304724488E0,1.737266827E0,-3.325457722E-2,2.886339700E0
2.006317708E0,-1.138304368E0,1.364024434E0,-3.114670275E0,3.585731504E0
2.016334708E0,-2.807522469E0,7.576716793E-1,-3.645030277E0,4.662884784E0
2.026351708E0,-4.234343076E0,4.962958771E-1,-1.913753922E0,4.673160061E0
2.036369708E0,-4.863550842E0,9.481938457E-1,4.845266014E-2,4.955355288E0
2.046386708E0,-4.521239051E0,1.730084692E0,1.714612375E0,5.135629581E0
2.056403708E0,-4.009653289E0,1.859189460E0,2.455334438E0,5.055944239E0
2.066421708E0,-3.922914523E0,1.732761548E0,2.036746303E0,4.747636932E0
2.076438708E0,-4.072867538E0,1.079824026E0,2.075333248E-1,4.218689368E0
2.086456708E0,-4.286987312E0,3.766191602E-3,-1.547636361E0,4.557790332E0
2.096473708E0,-4.489665256E0,-7.244887304E-1,-2.286360577E0,5.090129931E0
2.106490708E0,-4.230768088E0,-1.216268218E0,-1.437861904E0,4.630999228E0
2.116508708E0,-3.965730760E0,-1.276440160E0,1.371376723E-2,4.166114258E0
2.126525708E0,-4.175193812E0,-1.367380736E0,1.874626401E0,4.776630359E0
2.136542708E0,-4.773044130E0,-1.779799474E0,3.772506887E0,6.338883549E0
2.146560708E0,-5.105761226E0,-2.018038428E0,3.222289449E0,6.365879836E0
2.156577708E0,-5.158649876E0,-2.083980988E0,1.471313971E0,5.754946577E0
2.166594708E0,-4.933135048E0,-1.955905330E0,6.361196141E-1,5.344720313E0
2.176612708E0,-4.730362380E0,-2.096249031E0,1.590008502E-1,5.176472690E0
2.186629708E0,-4.028462613E0,-2.074403248E0,3.578800765E-1,4.545298451E0
2.196646708E0,-2.669561509E0,-1.329965572E0,6.047307372E-1,3.043200016E0
2.206664708E0,-1.008894961E0,-7.414485794E-1,1.580190003E0,2.016089156E0
2.216681708E0,-2.909323078E-1,-9.122410709E-1,2.383999869E0,2.569101157E0
2.226698708E0,-6.084209150E-1,-2.032947074E0,2.834468193E0,3.540799310E0
2.236716708E0,-1.156627788E0,-3.825571246E0,1.019740376E0,4.124639819E0
2.246733708E0,-1.344507305E0,-5.296770465E0,-1.628142580E0,5.702133418E0
2.256750708E0,-1.329803020E0,-6.265126680E0,-2.411309874E0,6.843581204E0
2.266768708E0,-8.000903052E-1,-6.535693136E0,-1.566590695E0,6.768281589E0
2.276785708E0,3.050550878E-1,-6.257373857E0,-1.345530568E-1,6.266250132E0
2.286803708E0,1.387450719E0,-5.772608104E0,8.867887259E-1,6.002867487E0
2.296820708E0,1.920094058E0,-5.504576417E0,1.550686854E0,6.032557703E0
2.306837708E0,2.132295361E0,-5.413101990E0,1.691554903E0,6.058854236E0
2.316855708E0,2.446760373E0,-5.201508213E0,1.069450480E0,5.846883643E0
2.326872708E0,2.956293762E0,-3.427147234E0,-2.219796020E-1,4.531477233E0
2.336889708E0,2.384712059E0,-1.283812914E0,-1.452993767E0,3.073470041E0
2.346907708E0,1.483428086E0,-7.144192404E-1,-1.515123065E0,2.237532489E0
2.356924708E0,1.209691855E0,-3.010316187E-1,-1.327476997E0,1.821035309E0
2.366941708E0,1.188447751E0,3.143685329E-1,-1.687534065E0,2.087823473E0
2.376959708E0,1.184369903E0,7.961498666E-1,-1.832984578E0,2.323019401E0
2.386976708E0,8.547015452E-1,1.861162310E0,-2.070966986E0,2.912618089E0
2.396993708E0,1.609714496E0,1.787794957E0,-2.324548450E0,3.345282807E0
2.407011708E0,2.421072970E0,1.905637987E0,-2.787752448E0,4.155070899E0
2.417028708E0,2.668934103E0,2.037799678E0,-2.871959955E0,4.418596017E0
2.427046708E0,2.888501143E0,2.292061173E0,-2.805037110E0,4.633056925E0
2.437063708E0,3.166332180E0,2.485723295E0,-2.999992928E0,5.020402109E0
2.447080708E0,4.059073371E0,2.421253064E0,-3.067401969E0,5.634491803E0
2.457098708E0,5.328045468E0,2.515179228E0,-2.294167925E0,6.322768502E0
2.467115708E0,5.786059624E0,2.835701956E0,-1.600507908E0,6.639376260E0
2.477132708E0,5.709853447E0,3.097872979E0,-1.198431141E0,6.605715751E0
2.487150708E0,5.980950830E0,3.579600518E0,-8.624695712E-1,7.023472536E0
2.497167708E0,6.039271544E0,4.210477665E0,-7.496416980E-1,7.400194972E0
2.507184708E0,5.561437081E0,4.656606186E0,-2.636166014E-1,7.258309534E0
2.517202708E0,5.015205982E0,4.815407208E0,7.727393693E-1,6.995538846E0
2.527219708E0,4.498619682E0,4.861743468E0,2.063641448E0,6.937776633E0
2.537236708E0,3.880367258E0,4.749695613E0,3.290814139E0,6.960338797E0
2.547254708E0,3.208359042E0,4.557874196E0,4.274031637E0,7.023897163E0
2.557271708E0,1.767531431E0,4.260046851E0,4.825160363E0,6.674903674E0
2.567288708E0,-8.376604199E-1,3.757869844E0,3.827255829E0,5.428733547E0
2.577306708E0,-2.754153178E0,1.742203631E0,2.183913411E0,3.923023198E0
2.587323708E0,-4.284466578E0,-1.844882492E0,2.675927957E0,5.377809563E0
2.597340708E0,-6.734080977E0,-5.716802278E0,4.726422526E0,1.001842027E1
2.607358708E0,-8.890386760E0,-8.214660299E0,3.990029449E0,1.274519343E1
2.617375708E0,-1.007330948E1,-1.023946396E1,1.988942683E0,1.450083028E1
2.627393708E0,-9.489731627E0,-1.054254152E1,1.066529650E0,1.422454475E1
2.637410708E0,-6.061426644E0,-5.087271745E0,6.621884018E-1,7.941015064E0
2.647427708E0,-1.225686328E0,1.859117539E0,1.747440398E-1,2.233642872E0
2.657445708E0,2.558927511E0,3.561023329E0,2.146189515E0,4.882123165E0
2.667462708E0,4.493848354E0,2.490907436E0,2.438589620E0,5.687355468E0
2.677479708E0,4.224931397E0,-1.155706851E0,-4.500474711E-1,4.403208644E0
2.687497708E0,3.664652948E0,-4.094634967E0,-1.280583059E0,5.642305355E0
2.697514708E0,3.279905573E0,-4.783522341E0,-2.797200379E0,6.439269874E0
2.707531708E0,3.913077752E0,-2.997633576E0,-2.777584140E0,5.657999488E0
2.717549708E0,5.377695930E0,-1.507539080E0,-3.303172229E0,6.488700514E0
2.727566708E0,5.048615218E0,-1.296513652E0,-2.483545207E0,5.773860066E0
2.737583708E0,4.122504551E0,-1.975580626E0,4.807357053E-1,4.596636749E0
2.747601708E0,2.606429706E0,-2.472720256E0,1.011788602E0,3.732497482E0
2.757618708E0,8.032688516E-1,-2.295454897E0,-1.320318690E0,2.767236072E0
2.767636708E0,1.948192853E-1,-1.577838984E0,-2.828018129E0,3.244259076E0
2.777652542E0,4.267619580E-1,-6.825630248E-1,-3.484225999E0,3.576010188E0
2.787669542E0,8.542244124E-1,3.624227053E-1,-3.501615034E0,3.622479456E0
2.797687542E0,1.401532568E0,1.562408767E0,-2.880615004E0,3.564176973E0
2.807704542E0,1.990749473E0,2.772232184E0,-2.653909097E0,4.323376949E0
2.817721542E0,2.675667756E0,3.893643361E0,-2.547703196E0,5.367536506E0
2.827739542E0,3.331457258E0,4.922577315E0,-2.274858811E0,6.364381941E0
2.837756542E0,3.593315747E0,5.830016068E0,-2.729994237E0,7.372507982E0
2.847773542E0,3.426181566E0,6.559627544E0,-2.964492143E0,7.972179583E0
2.857791542E0,3.040106289E0,6.716263926E0,-3.297675846E0,8.076206619E0
2.867808542E0,3.059504427E0,6.580498011E0,-3.427441349E0,8.025638642E0
2.877825542E0,3.037418324E0,6.422578749E0,-2.380168773E0,7.492705202E0
2.887843542E0,3.102377089E0,6.022446765E0,-1.207937690E0,6.881404080E0
2.897860542E0,3.174291410E0,5.856331462E0,-1.943510402E0,6.939018434E0
2.907877542E0,3.167808309E0,5.487797831E0,-2.702733933E0,6.888810146E0
2.917895542E0,3.116292293E0,5.267796342E0,-3.694863757E0,7.149333825E0
2.927912542E0,2.835662779E0,5.228088486E0,-3.261432757E0,6.783128794E0
2.937930542E0,1.260781463E0,8.848100281E-1,-2.395488478E0,2.847950795E0
2.947947542E0,-1.025425844E0,-1.702550505E1,-2.266730889E-1,1.705786332E1
2.957964542E0,1.280979354E0,-2.702244638E1,-5.813091302E-1,2.705903614E1
2.967982542E0,8.985865067E-1,-1.724786179E1,-8.075495982E-1,1.729012234E1
2.977999542E0,-2.097307377E0,-6.888444546E0,7.231194587E-1,7.236868677E0
2.988016542E0,-2.249485842E0,-2.145874350E0,2.080534054E0,3.740800079E0
2.998034542E0,-1.823387251E0,1.387278226E0,2.866856213E0,3.669897340E0
3.008051542E0,-2.003536018E0,2.603269286E0,3.413357745E0,4.737317664E0
3.018068542E0,-2.772649090E0,1.845349100E0,3.435710481E0,4.785081273E0
3.028086542E0,-2.668446737E0,9.840472180E-1,3.002286791E0,4.135539008E0
3.038103542E0,-1.373800102E0,4.328991956E-1,2.711377287E0,3.070227227E0
3.048120542E0,1.826155615E-1,-8.851403958E-1,2.747008465E0,2.891864013E0
3.058138542E0,1.908683509E0,-1.922629995E0,2.796033275E0,3.893248118E0
3.068155542E0,2.574986889E0,-1.707122092E0,2.272972061E0,3.835521516E0
3.078173542E0,1.383157693E0,-1.336185840E0,1.582442936E0,2.490510680E0
3.088190542E0,-1.083756571E0,-1.114387502E0,1.053033545E0,1.877569561E0
3.098207542E0,-2.720343115E0,-1.477035910E0,9.607931337E-1,3.241145660E0
3.108225542E0,-3.358844446E0,-2.358943965E0,1.035494091E0,4.233048624E0
3.118242542E0,-4.289328830E0,-3.731078487E0,1.906732585E0,5.996241960E0
3.128259542E0,-5.539590713E0,-4.780244392E0,3.471784294E0,8.098832502E0
3.138277542E0,-6.383558525E0,-4.830364385E0,3.665368939E0,8.804383510E0
3.148294542E0,-6.342767179E0,-4.361273848E0,3.059340413E0,8.283173838E0
3.158311542E0,-5.261865512E0,-3.971056404E0,3.510647228E0,7.468678704E0
3.168329542E0,-4.144583053E0,-4.090200439E0,4.523339955E0,7.373460020E0
3.178346542E0,-3.792938228E0,-4.648692564E0,6.163744147E0,8.601654775E0
3.188363542E0,-4.140699040E0,-4.938703936E0,8.276061326E0,1.048948884E1
3.198381542E0,-4.739317975E0,-4.639820584E0,9.365005839E0,1.147573110E1
3.208398542E0,-4.766356962E0,-3.703925772E0,8.100235552E0,1.010203152E1
3.218415542E0,-4.132155088E0,-2.745737280E0,6.992355416E0,8.573611441E0
3.228433542E0,-4.249486780E0,-1.812350339E0,5.589732342E0,7.251748706E0
3.238450542E0,-4.309984119E0,-1.402517824E0,3.238648789E0,5.570625219E0
3.248468542E0,-3.021368594E0,-2.248422233E0,9.833016980E-1,3.892422504E0
3.258485542E0,-5.808837453E-1,-4.153098353E0,-1.764128351E-1,4.197234011E0
3.268502542E0,9.165725420E-1,-6.240873014E0,-2.172010819E0,6.671299139E0
3.278520542E0,2.539530835E0,-7.399909855E0,-5.142627336E0,9.362398124E0
3.288537542E0,4.441229260E0,-6.991585922E0,-6.632474495E0,1.061115022E1
3.298554542E0,5.413858035E0,-6.259363080E0,-6.093892139E0,1.027740271E1
3.308572542E0,4.823681602E0,-6.219745270E0,-5.177787228E0,9.421391405E0
3.318589542E0,3.500954006E0,-6.334041964E0,-3.337539239E0,7.969688496E0
3.328606542E0,2.705456104E0,-6.683445843E0,-8.949473459E-1,7.265595077E0
3.338624542E0,2.030742966E0,-7.257771059E0,1.755384425E0,7.738251238E0
3.348641542E0,1.884436567E0,-6.677272353E0,2.074957418E0,7.241720482E0
3.358659542E0,1.063681617E0,-6.378893031E0,-1.234542083E0,6.583751897E0
3.368676542E0,1.075554681E0,-5.895766838E0,-2.664170376E0,6.558558399E0
3.378693542E0,3.444451192E0,-3.618115543E0,1.995895900E-1,4.999483983E0
3.388711542E0,3.841330954E0,-1.369016202E0,-3.929691446E-1,4.096883402E0
3.398728542E0,4.372845196E0,2.590673214E-1,-2.154946305E0,4.881873059E0
3.408745542E0,4.743260753E0,1.369453574E0,-3.527776354E0,6.067877031E0
3.418763542E0,3.938511678E0,2.151130997E0,-4.624437729E0,6.443963308E0
3.428780542E0,2.731749279E0,2.514060656E0,-5.377861991E0,6.534856899E0
3.438797542E0,2.198569750E0,2.780300172E0,-5.477008549E0,6.523909919E0
3.448815542E0,2.080155301E0,3.530702008E0,-5.805757724E0,7.106315888E0
3.458832542E0,2.263041296E0,4.509723544E0,-5.659720005E0,7.582307886E0
3.468849542E0,2.632627279E0,5.302040561E0,-5.922855819E0,8.373922710E0
3.478867542E0,3.187140082E0,5.862082198E0,-6.514188831E0,9.325048296E0
3.488884542E0,3.883410149E0,6.217239738E0,-6.623297875E0,9.879424026E0
3.498902542E0,3.797789663E0,6.753451048E0,-6.653972368E0,1.021311195E1
3.508919542E0,3.769346175E0,7.179652843E0,-6.394384060E0,1.032683558E1
3.518936542E0,3.709642010E0,7.628142470E0,-5.904318976E0,1.033493996E1
3.528954542E0,3.740635176E0,8.216882241E0,-5.105575869E0,1.037190485E1
3.538971542E0,3.420169752E0,8.872718228E0,-4.036169828E0,1.033021572E1
3.548988542E0,3.141837024E0,9.433746291E0,-2.862430163E0,1.034699064E1
3.559006542E0,2.734725804E0,9.846248059E0,-1.865059772E0,1.038777041E1
3.569023542E0,3.276765618E0,9.754865434E0,-8.636407685E-1,1.032668717E1
3.579040542E0,3.244662943E0,9.968765938E0,1.175573059E0,1.054922291E1
3.589058542E0,3.531970269E0,9.543580390E0,4.574666814E0,1.115716438E1
3.599075542E0,2.626862801E0,6.936565962E0,9.351592326E0,1.193602256E1
3.609092542E0,3.534951033E-1,2.085134643E0,1.106689643E1,1.126716210E1
3.619110542E0,-2.416182797E-2,-4.245819406E0,6.986477210E0,8.175477358E0
3.629127542E0,-1.722938518E0,-1.227074925E1,6.296743160E0,1.389923663E1
3.639145542E0,-4.672419981E0,-2.151347110E1,8.196349744E0,2.349129831E1
3.649162542E0,-6.501032596E0,-2.647213918E1,5.936835342E0,2.789773453E1
3.659179542E0,-6.570760642E0,-2.000476082E1,3.377844096E0,2.132545854E1
3.669197542E0,-4.535288448E0,-7.079128096E0,2.915821382E0,8.898590351E0
3.679214542E0,-8.452428699E-1,1.108125719E0,2.112319226E0,2.530666045E0
3.689231542E0,1.748805430E0,5.945312635E0,1.524915543E0,6.382039657E0
3.699249542E0,4.209265537E0,9.299003638E0,8.360921967E-1,1.024150551E1
3.709266542E0,4.951846138E0,1.001008119E1,6.675137535E-1,1.118785414E1
3.719283542E0,6.106860094E0,8.874860063E0,4.821494159E-1,1.078375396E1
3.729301542E0,6.762432371E0,6.938746973E0,-3.912028177E0,1.044895524E1
3.739318542E0,5.254208583E0,3.551778297E0,-1.322800277E1,1.466976122E1
3.749336542E0,5.084802466E0,-1.512667088E0,-1.634882081E1,1.718799929E1
3.759353542E0,7.809642967E0,-6.885855399E0,-8.212392749E0,1.326080399E1
3.769370542E0,1.055006337E1,-9.901034131E0,4.506188902E0,1.515387912E1
3.779388542E0,7.520473595E0,-9.738941712E0,5.140451002E0,1.333524448E1
3.789405542E0,2.251593325E0,-5.169115807E0,-1.613930923E-1,5.640521116E0
3.799422542E0,9.012684418E-2,-4.434604365E-1,-1.194714797E0,1.277545871E0
3.809440542E0,-4.128073586E-1,2.292959306E0,-3.013690031E0,3.809251881E0
3.819457542E0,-1.184892644E0,3.113877393E0,-6.356094153E0,7.176359514E0
3.829474542E0,-8.294876935E-1,2.946682109E0,-7.958996058E0,8.527403094E0
3.839492542E0,1.691312609E-2,2.350556719E0,-7.486874324E0,7.847209064E0
3.849509542E0,7.818194374E-1,8.914746845E-1,-6.352853626E0,6.462562800E0
3.859526542E0,1.435797252E0,-5.797157639E-1,-4.738478315E0,4.985053747E0
3.869544542E0,1.555471922E0,-1.330154437E0,-2.652259013E0,3.350116655E0
3.879561542E0,8.688833090E-1,-1.712603272E0,-1.083046426E0,2.204757976E0
3.889579542E0,1.359764153E-1,-1.745624253E0,-2.937179214E-1,1.775377096E0
3.899596542E0,-8.646368417E-1,-1.755628254E0,1.057498552E-1,1.959849603E0
3.909613542E0,-2.128655177E0,-1.645467880E0,3.399337657E-1,2.711879860E0
3.919631542E0,-3.107370319E0,-9.657413399E-1,5.204483861E-1,3.295341129E0
3.929648542E0,-3.721470342E0,-4.081666428E-1,4.197657645E-2,3.744022376E0
3.939665542E0,-4.118716140E0,-2.777292949E-1,-1.150246722E-1,4.129671522E0
3.949683542E0,-3.873745871E0,7.587230086E-2,1.846726120E-1,3.878887425E0
3.959700542E0,-3.154115592E0,6.181541902E-1,2.225204694E-1,3.221812399E0
3.969717542E0,-2.433787302E0,1.356398495E0,-6.910555208E-1,2.870661116E0
3.979735542E0,-2.005979862E0,1.980202850E0,-1.939337829E0,3.421430951E0
3.989752542E0,-1.795507142E0,2.325481519E0,-2.898812124E0,4.127326243E0
3.999770542E0,-1.670939521E0,2.667329627E0,-3.043076967E0,4.378013665E0
4.009787542E0,-1.031136307E0,2.695740663E0,-1.760575583E0,3.380811469E0
4.019804542E0,2.815361246E-2,2.498205346E0,-1.455746198E-1,2.502601556E0
4.029822542E0,1.063226850E0,2.284568551E0,1.315301779E0,2.842485456E0
4.039839542E0,2.111084733E0,2.129637217E0,2.446865623E0,3.870295183E0
4.049856542E0,2.747490568E0,1.749454764E0,2.995231540E0,4.425009420E0
4.059874542E0,2.947521184E0,1.483024628E0,2.939397647E0,4.418970662E0
4.069891542E0,2.476585266E0,1.191008831E0,2.780271521E0,3.909205334E0
4.079908542E0,1.659598846E0,8.810116768E-1,3.104027174E0,3.628420400E0
4.089926542E0,4.247347283E-1,5.448318601E-2,3.911182669E0,3.934554343E0
4.099943542E0,-1.240904000E0,-8.792341232E-1,4.651251891E0,4.893571245E0
4.109961542E0,-2.625893918E0,-1.249446489E0,4.619609098E0,5.458683323E0
4.119978542E0,-3.694371129E0,-1.305773887E0,3.469570245E0,5.233673774E0
4.129995542E0,-4.513529789E0,-1.430237719E0,1.882697021E0,5.095299713E0
4.140013542E0,-4.800689766E0,-1.777739500E0,3.807320917E-1,5.133413765E0
4.150030542E0,-5.080359167E0,-2.236675762E0,-3.235942698E-1,5.560348998E0
4.160047542E0,-5.252028741E0,-2.692351032E0,-5.102911878E-1,5.923930880E0
4.170065542E0,-5.339299019E0,-3.004610474E0,-2.051685646E-1,6.130080934E0
4.180082542E0,-5.557582011E0,-3.210351189E0,7.099698016E-1,6.457331468E0
4.190099542E0,-6.106870619E0,-3.568684351E0,1.944323604E0,7.335514367E0
4.200117542E0,-6.198411119E0,-4.205915667E0,3.304549248E0,8.187189550E0
4.210134542E0,-5.204908369E0,-4.804743056E0,4.047122247E0,8.158175374E0
4.220152542E0,-4.496204782E0,-5.524776793E0,4.974331605E0,8.688094783E0
4.230169542E0,-4.206356255E0,-5.976191781E0,6.344205594E0,9.677667372E0
4.240186542E0,-4.022908635E0,-5.551096864E0,7.717583234E0,1.032276907E1
4.250204542E0,-4.694023981E0,-5.349880140E0,7.223895800E0,1.014099350E1
4.260221542E0,-5.516040468E0,-5.334908345E0,5.798252238E0,9.618091209E0
4.270238542E0,-4.905125130E0,-4.396105712E0,5.331400015E0,8.474067742E0
4.280256542E0,-3.519472430E0,-3.092860161E0,5.513146681E0,7.235140392E0
4.290273542E0,-1.876316685E0,-2.241299155E0,4.817623887E0,5.635023170E0
4.300291542E0,-1.868724807E-1,-3.164659292E0,3.357139106E0,4.617398914E0
4.310308542E0,1.556098159E0,-4.959257483E0,-3.255472398E-1,5.207845742E0
4.320325542E0,3.183047908E0,-6.420101284E0,-4.112383021E0,8.262032957E0
4.330343542E0,4.350561457E0,-6.339499755E0,-5.789754480E0,9.624858392E0
4.340360542E0,4.893637691E0,-5.857095108E0,-5.824502728E0,9.600941880E0
4.350377542E0,4.938120968E0,-5.764528422E0,-5.365370584E0,9.295269126E0
4.360395542E0,4.593089637E0,-5.451158009E0,-4.261858903E0,8.305121152E0
4.370412542E0,3.967846867E0,-4.921970959E0,-2.019353467E0,6.636821175E0
4.380430542E0,3.002920629E0,-4.397783863E0,5.068132639E-1,5.349289195E0
4.390447542E0,2.177395959E0,-3.846579123E0,1.050602565E0,4.543235615E0
4.400464542E0,1.843211358E0,-3.812205096E0,-1.606984431E-1,4.237470920E0
4.410482542E0,2.164890226E0,-3.292916797E0,-2.618829896E0,4.731629820E0
4.420499542E0,9.800121275E-1,-3.000835512E0,-4.926767430E0,5.851365212E0
4.430517542E0,1.768371237E0,-2.295628560E0,-3.350019828E0,4.429410815E0
4.440534542E0,2.400580380E0,-1.163383076E0,-2.701444037E0,3.796583494E0
4.450551542E0,1.951007410E0,-1.037757987E-1,-3.124770756E0,3.685293965E0
4.460569542E0,1.276543948E0,5.501463944E-1,-4.130163819E0,4.357806636E0
4.470586542E0,6.183629358E-1,1.246907628E0,-4.619800302E0,4.824904785E0
4.480604542E0,1.217133752E0,2.061121298E0,-4.842118166E0,5.401457573E0
4.490621542E0,1.822213861E0,3.251710299E0,-5.333508521E0,6.506949852E0
4.500638542E0,2.861999223E0,4.481232986E0,-5.667588018E0,7.771360407E0
4.510656542E0,3.777243424E0,5.659353384E0,-6.126242445E0,9.155691951E0
4.520673542E0,4.487149199E0,6.581544662E0,-6.563229429E0,1.032120238E1
4.530690542E0,5.527155440E0,7.324965507E0,-6.677336673E0,1.134862952E1
4.540708542E0,5.785524019E0,7.718488383E0,-6.736007050E0,1.176525147E1
4.550725542E0,5.783689163E0,7.742951379E0,-6.498482040E0,1.164622794E1
4.560743542E0,5.841913397E0,7.814289165E0,-6.063605316E0,1.148731373E1
4.570760542E0,5.974270971E0,8.267646013E0,-5.444400966E0,1.156232616E1
4.580777542E0,5.423497170E0,8.967729051E0,-4.599100867E0,1.144492091E1
4.590795542E0,5.381897739E0,9.355920435E0,-3.350406914E0,1.130147322E1
4.600812542E0,5.194682758E0,9.964251888E0,-1.933549086E0,1.140217772E1
4.610830542E0,5.164739751E0,1.048508677E1,-5.955883232E-1,1.170326052E1
4.620847542E0,5.231088692E0,1.051845333E1,1.165131394E0,1.180507012E1
4.630864542E0,4.529059994E0,9.030333434E0,5.933292514E0,1.171594070E1
4.640882542E0,3.238846132E0,5.340069682E0,1.368077490E1,1.503895177E1
4.650899542E0,1.168139201E0,-7.539902723E-1,1.393748989E1,1.400666537E1
4.660917542E0,-5.940246315E-1,-8.517711546E0,8.595912209E0,1.211585663E1
4.670934542E0,-5.552225377E0,-2.068553109E1,1.129230074E1,2.421227910E1
4.680951542E0,-1.436918163E1,-3.346166923E1,5.747517117E0,3.686720278E1
4.690969542E0,-1.380941131E1,-3.256406081E1,5.079252581E-1,3.537479166E1
4.700986542E0,-9.481616276E0,-1.467407183E1,3.681439719E0,1.785447926E1
4.711004542E0,-2.495771150E0,-1.093217658E0,2.391737781E0,3.625521769E0
4.721021542E0,1.432618998E0,4.649388383E0,8.669184253E-1,4.941736242E0
4.731038542E0,5.430990377E0,8.384319600E0,6.554664427E-1,1.001109924E1
4.741056542E0,9.979543526E0,8.727859892E0,7.461465248E-1,1.327868826E1
4.751073542E0,1.252507740E1,6.097484668E0,-5.325070989E-1,1.394060426E1
4.761091542E0,1.029290868E1,2.754444369E0,-7.361858515E0,1.295098041E1
4.771108542E0,6.740512329E0,-9.100834483E-1,-1.309630827E1,1.475723717E1
4.781125417E0,8.832764204E0,-3.446165888E0,-9.902335721E0,1.370948706E1
4.791143417E0,1.001105534E1,-2.740678854E0,-6.810837961E0,1.241451019E1
4.801160417E0,7.589632123E0,9.946990907E-2,-4.629766881E-2,7.590425119E0
4.811178417E0,4.594602604E0,2.513636733E0,1.184863992E0,5.369603839E0
4.821195417E0,2.388314529E0,2.039174944E0,-1.762277854E0,3.601097607E0
4.831212417E0,7.316867991E-1,9.939348596E-1,-5.943049763E0,6.069852763E0
4.841230417E0,3.015120406E-1,8.125203162E-1,-8.416645347E0,8.461147539E0
4.851247417E0,8.852198448E-1,-5.221698064E-1,-7.683206284E0,7.751640748E0
4.861265417E0,1.460837807E0,-2.370381703E0,-6.130179960E0,6.732894092E0
4.871282417E0,1.612343988E0,-3.792177213E0,-4.588362747E0,6.167117143E0
4.881299417E0,8.930553330E-1,-4.007186349E0,-3.022027575E0,5.097817271E0
4.891317417E0,-2.769332696E-1,-3.450242566E0,-1.618730902E0,3.821145841E0
4.901334417E0,-1.658454400E0,-2.480123416E0,-8.620958611E-1,3.105590512E0
4.911352417E0,-2.570464067E0,-1.366231173E0,-8.979756188E-1,3.046347543E0
4.921369417E0,-2.653086979E0,-2.029650414E-1,-1.247633268E0,2.938818486E0
4.931387417E0,-2.350467402E0,4.245867938E-1,-8.633109856E-1,2.539739517E0
4.941404417E0,-2.079092131E0,6.412465990E-1,-7.920230845E-2,2.177175761E0
4.951421417E0,-1.779856923E0,8.991596800E-1,2.112984931E-1,2.005249573E0
4.961439417E0,-1.613056618E0,1.029464296E0,-5.506322980E-2,1.914361603E0
4.971456417E0,-1.842407658E0,1.186902916E0,-8.539624572E-1,2.352117427E0
4.981474417E0,-2.003247896E0,1.352280886E0,-1.411374017E0,2.798864474E0
4.991491417E0,-1.763257993E0,1.687661389E0,-1.782287464E0,3.022222414E0
5.001508417E0,-1.395362294E0,2.159096074E0,-1.534555116E0,2.993925716E0
5.011526417E0,-1.215948375E0,2.117891915E0,-9.249874163E-1,2.611436068E0
5.021543417E0,-7.925181609E-1,1.828098645E0,1.309542418E-2,1.992536369E0
5.031561417E0,-2.781210583E-1,1.810286272E0,7.852832548E-1,1.992776329E0
5.041578417E0,1.839455107E-1,1.951362628E0,1.177026823E0,2.286272993E0
5.051595417E0,4.543853742E-1,2.111689188E0,1.738612272E0,2.772809032E0
5.061613417E0,5.469815889E-1,2.104783042E0,2.328424423E0,3.186041557E0
5.071630417E0,1.928223149E-1,1.809752421E0,2.747579738E0,3.295690927E0
5.081648417E0,-4.671855140E-1,1.360609075E0,3.266013758E0,3.568804454E0
5.091665417E0,-1.208078608E0,6.857105809E-1,3.853883464E0,4.096592569E0
5.101682417E0,-2.124597794E0,-2.775690812E-1,4.204089582E0,4.718615220E0
5.111700417E0,-2.832787119E0,-1.087713674E0,3.981620276E0,5.006106662E0
5.121717417E0,-3.256843278E0,-1.418854360E0,3.256341294E0,4.819121751E0
5.131735417E0,-3.666615858E0,-1.395119927E0,2.462230644E0,4.631739544E0
5.141752417E0,-3.872570873E0,-1.228750269E0,1.613561379E0,4.371522929E0
5.151770417E0,-3.907275852E0,-1.380658593E0,9.401207413E-1,4.249335212E0
5.161787417E0,-3.992628244E0,-1.933176033E0,9.907440341E-1,4.545307868E0
5.171804417E0,-4.302158498E0,-2.792273515E0,1.140234242E0,5.254093000E0
5.181822417E0,-4.889676787E0,-3.443279702E0,1.866490001E0,6.264894182E0
5.191839417E0,-5.502001888E0,-3.462327007E0,2.384652564E0,6.924326749E0
5.201857417E0,-5.950455261E0,-3.301980566E0,2.362042112E0,7.203487795E0
5.211874417E0,-6.196324832E0,-3.333970683E0,2.303643630E0,7.403821711E0
5.221891417E0,-5.836355034E0,-3.851747476E0,2.778838660E0,7.524688898E0
5.231909417E0,-4.994412698E0,-4.825895943E0,3.532726314E0,7.791892265E0
5.241926417E0,-4.191345868E0,-5.631103731E0,5.219320586E0,8.747457733E0
5.251944417E0,-3.910017612E0,-5.962773591E0,7.297287712E0,1.020261312E1
5.261961417E0,-3.871765712E0,-5.354342735E0,8.622590715E0,1.086317755E1
5.271978417E0,-4.200303510E0,-4.102378435E0,8.806242403E0,1.058404288E1
5.281996417E0,-4.670572553E0,-2.946695557E0,8.168092489E0,9.859766609E0
5.292013417E0,-4.576584409E0,-1.781841322E0,6.682392175E0,8.293036147E0
5.302031417E0,-3.461604876E0,-1.186985947E0,4.150191118E0,5.533148314E0
5.312048417E0,-1.912340211E0,-2.060059444E0,1.301944546E0,3.097732977E0
5.322066417E0,-6.710413787E-1,-4.951101787E0,-7.493136692E-1,5.052244691E0
5.332083417E0,2.310186665E-1,-7.978190712E0,-3.209501004E0,8.602661993E0
5.342100417E0,2.204753034E0,-8.421642378E0,-5.518530797E0,1.030723913E1
5.352118417E0,4.097103077E0,-7.180007769E0,-6.146016558E0,1.030108173E1
5.362135417E0,4.930807271E0,-6.661053346E0,-5.852396286E0,1.014559187E1
5.372153417E0,5.001414154E0,-6.391034190E0,-5.242127650E0,9.661229935E0
5.382170417E0,4.519119435E0,-5.725100647E0,-3.149512664E0,7.944724533E0
5.392187417E0,3.938004725E0,-5.561682664E0,7.718850911E-2,6.815141475E0
5.402205417E0,3.259961890E0,-5.759741306E0,1.913139818E0,6.889272487E0
5.412222417E0,3.978450792E0,-5.271563703E0,6.972654100E-1,6.641056666E0
5.422240417E0,4.366413843E0,-4.534155550E0,-1.277799638E0,6.423154079E0
5.432257417E0,3.496373882E0,-3.545137029E0,-3.168722522E0,5.901985200E0
5.442274417E0,2.473116698E0,-2.518205162E0,-3.378978456E0,4.886221326E0
5.452292417E0,2.653755023E0,-1.301007237E0,-2.333588099E0,3.765722901E0
5.462309417E0,3.392479970E0,-1.225868762E-2,-1.778893740E0,3.830604855E0
5.472327417E0,2.634334373E0,8.449706089E-1,-2.800157901E0,3.936315179E0
5.482344417E0,2.182294025E0,1.466242535E0,-4.369716935E0,5.099676507E0
5.492362417E0,1.680395638E0,2.013313293E0,-4.990461735E0,5.637540975E0
5.502379417E0,1.975622872E0,2.561721895E0,-4.793373730E0,5.782900355E0
5.512396417E0,2.467762110E0,3.461725329E0,-5.129772817E0,6.662429079E0
5.522414417E0,3.152219340E0,4.368967030E0,-5.650206585E0,7.806996486E0
5.532431417E0,4.448642360E0,5.178780670E0,-6.047803216E0,9.120642073E0
5.542449417E0,5.238112952E0,6.110597634E0,-6.461700715E0,1.032137621E1
5.552466417E0,5.497921700E0,7.079964248E0,-6.512338772E0,1.107987333E1
5.562483417E0,6.118114230E0,7.606218919E0,-6.493703696E0,1.172408102E1
5.572501417E0,6.034740536E0,7.990790293E0,-6.187441742E0,1.177094976E1
5.582518417E0,5.531046177E0,8.743652637E0,-5.716652005E0,1.182049252E1
5.592536417E0,5.241959835E0,9.398309240E0,-4.990709656E0,1.186227391E1
5.602553417E0,4.569738488E0,1.020927829E1,-3.855243819E0,1.183109369E1
5.612570417E0,4.219295559E0,1.068886926E1,-2.596776246E0,1.178124051E1
5.622588417E0,4.110339127E0,1.101858322E1,-1.359893084E0,1.183863899E1
5.632605417E0,4.280095784E0,1.141746741E1,-1.153836912E-1,1.219389582E1
5.642623417E0,4.242390014E0,1.107125845E1,2.456405648E0,1.210803722E1
5.652640417E0,2.973001011E0,8.780788304E0,8.229331548E0,1.239608309E1
5.662658417E0,1.744721735E0,4.020751305E0,1.412399385E1,1.478843119E1
5.672675417E0,6.195519671E-1,-3.870082006E0,1.125313726E1,1.191614357E1
5.682692417E0,-1.903309918E0,-1.473704985E1,8.882495942E0,1.731190230E1
5.692710417E0,-8.304533758E0,-2.811215921E1,7.187847716E0,3.018151639E1
5.702727417E0,-1.211921281E1,-3.480429753E1,7.238300416E-1,3.686106856E1
5.712745417E0,-1.100490542E1,-2.568840880E1,2.802300321E0,2.808656578E1
5.722762417E0,-6.370576537E0,-7.529557829E0,3.987649047E0,1.063860101E1
5.732780417E0,-6.883590773E-2,1.808359029E0,1.584517674E0,2.405326801E0
5.742797417E0,2.337384988E0,6.579770032E0,6.876325607E-1,7.016379465E0
5.752814417E0,6.131235967E0,8.861871058E0,7.238180548E-1,1.080040396E1
5.762832417E0,9.723775204E0,7.871645672E0,-8.194106752E-1,1.253738584E1
5.772849417E0,1.078371811E1,4.303733738E0,-5.441603658E0,1.282270450E1
5.782867542E0,7.288633248E0,-7.615624166E-1,-1.069908551E1,1.296821432E1
5.792884542E0,5.559781149E0,-4.699499021E0,-1.237374796E1,1.435639565E1
5.802901542E0,6.934446931E0,-6.066109679E0,-5.970899466E0,1.097888343E1
5.812919542E0,5.444664676E0,-3.554489651E0,-1.499015740E0,6.672766914E0
5.822936542E0,3.409184880E0,1.521916214E0,3.048210238E0,4.819787979E0
5.832954542E0,3.266010835E0,3.813456985E0,1.940359338E0,5.382775799E0
5.842971542E0,3.850027226E0,3.523800539E0,-1.308015125E0,5.380593224E0
5.852988542E0,2.740751359E0,2.522304645E0,-4.967349445E0,6.208727667E0
5.863006542E0,2.318888637E0,1.958469334E0,-6.491526777E0,7.166084464E0
5.873023542E0,2.824472963E0,1.156990900E0,-5.808053341E0,6.561231521E0
5.883041542E0,3.061040491E0,-4.786039567E-1,-4.892536075E0,5.791022352E0
5.893058542E0,2.901327303E0,-2.227141877E0,-3.920808356E0,5.361958525E0
5.903076542E0,2.174123857E0,-3.101156775E0,-3.069605784E0,4.875086416E0
5.913093542E0,8.408331922E-1,-3.093969963E0,-2.360109315E0,3.981176530E0
5.923110542E0,-6.444143280E-1,-2.464735299E0,-1.725754829E0,3.077079727E0
5.933128542E0,-1.920199893E0,-1.883891607E0,-1.211294577E0,2.950160973E0
5.943145542E0,-2.736065108E0,-9.872959310E-1,-8.590764320E-1,3.032955300E0
5.953163542E0,-3.296044765E0,-3.788621521E-1,-5.553235191E-1,3.363901282E0
5.963180542E0,-3.829894970E0,-1.528169811E-1,-3.666005409E-1,3.850434322E0
5.973197542E0,-3.946246083E0,1.655299973E-1,-1.599307036E-1,3.952952840E0
5.983215542E0,-3.687396278E0,7.666892552E-1,-1.691763210E-1,3.770056280E0
5.993232542E0,-3.013910178E0,1.423929743E0,-6.539654624E-1,3.396895833E0
6.003250542E0,-2.627118032E0,1.822944324E0,-1.682887137E0,3.613444932E0
6.013267542E0,-2.334782977E0,2.078586931E0,-2.439013982E0,3.964911649E0
6.023285542E0,-1.739890765E0,1.933218133E0,-2.570687431E0,3.656909364E0
6.033302542E0,-1.129057581E0,1.873883513E0,-2.038145249E0,2.990024498E0
6.043319542E0,-2.701265989E-1,2.081346232E0,-5.694064649E-1,2.174671065E0
6.053337542E0,3.023182985E-1,2.271702338E0,9.342820772E-1,2.474855726E0
6.063354542E0,7.923962465E-1,2.167235983E0,1.799888753E0,2.926500152E0
6.073372542E0,1.210529176E0,2.001664470E0,2.285909172E0,3.270691407E0
6.083389542E0,1.505485538E0,1.901563647E0,2.638461338E0,3.583840013E0
6.093406542E0,1.479022209E0,1.746079751E0,3.098868760E0,3.852179744E0
6.103424542E0,1.088700684E0,1.405418043E0,3.552788111E0,3.972753757E0
6.113441542E0,2.411953068E-1,8.449138910E-1,3.693521236E0,3.796597659E0
6.123459542E0,-9.896000263E-1,4.012417853E-2,3.312861650E0,3.457740660E0
6.133476542E0,-2.307223881E0,-6.188792449E-1,2.735099148E0,3.631399304E0
6.143494542E0,-3.293909362E0,-1.082306169E0,2.140527656E0,4.074688231E0
6.153511542E0,-4.001572145E0,-1.254654019E0,1.725906418E0,4.534918886E0
6.163528542E0,-4.533289285E0,-1.342102053E0,1.313636638E0,4.906892181E0
6.173546542E0,-4.844278712E0,-1.806135918E0,8.942649758E-1,5.246796455E0
6.183563542E0,-5.207508041E0,-2.477724304E0,8.725647891E-1,5.832548931E0
6.193581542E0,-5.800753092E0,-2.836279660E0,1.381825844E0,6.603231134E0
6.203598542E0,-6.668022058E0,-2.753721069E0,1.722462262E0,7.417032704E0
6.213615542E0,-6.900798544E0,-2.414912344E0,2.103460256E0,7.607717609E0
6.223633542E0,-6.354142352E0,-2.290660765E0,2.047413524E0,7.057914275E0
6.233650542E0,-5.758537949E0,-2.888191826E0,2.098617153E0,6.775441336E0
6.243668542E0,-5.065943441E0,-3.404233750E0,3.644060808E0,7.108570148E0
6.253685542E0,-4.343928376E0,-4.105250587E0,5.650143435E0,8.224774584E0
6.263703542E0,-4.084181315E0,-5.194725443E0,6.950506893E0,9.590373064E0
6.273720542E0,-4.297480726E0,-5.749067214E0,7.047787020E0,1.005939443E1
6.283737542E0,-5.035815663E0,-5.451824006E0,6.309077861E0,9.740959288E0
6.293755542E0,-5.698695205E0,-4.421318906E0,5.880275810E0,9.305956776E0
6.303772542E0,-5.422900754E0,-3.007423570E0,5.832909855E0,8.513241832E0
6.313790542E0,-4.309051488E0,-1.782868677E0,4.376968360E0,6.395654577E0
6.323807542E0,-2.704267950E0,-2.002635693E0,2.368162100E0,4.114827651E0
6.333825542E0,-1.230432367E0,-4.073832328E0,9.419045075E-1,4.358584375E0
6.343842542E0,-1.595208138E-2,-6.920569149E0,-9.566910195E-1,6.986400327E0
6.353859542E0,2.110919695E0,-7.775222163E0,-3.550212412E0,8.804207506E0
6.363877542E0,4.036220698E0,-6.663174716E0,-5.314983373E0,9.430695790E0
6.373894542E0,5.214031194E0,-6.277066694E0,-5.217705585E0,9.685666686E0
6.383912542E0,5.877284374E0,-6.458637943E0,-4.495869151E0,9.821879409E0
6.393929542E0,6.081536973E0,-6.661631636E0,-3.190779389E0,9.567836804E0
6.403946542E0,5.789943929E0,-6.724108551E0,-1.056688494E0,8.936088466E0
6.413964542E0,6.000320901E0,-6.225284922E0,5.297792997E-1,8.662487483E0
6.423981542E0,6.384455488E0,-5.294308203E0,1.536869006E-1,8.295456038E0
6.433999542E0,5.387771852E0,-4.247623272E0,-8.879593384E-1,6.918009886E0
6.444016542E0,2.396847809E0,-3.487995699E0,-3.499358009E0,5.491493412E0
6.454034542E0,-3.982733732E-1,-2.953120478E0,-6.471530469E0,7.124622716E0
6.464051542E0,-1.022126771E0,-2.510959293E0,-3.955765935E0,4.795596296E0
6.474068542E0,4.205918299E-1,-1.501614096E0,-1.829846377E0,2.404179724E0
6.484086542E0,3.085524537E-1,-1.046804214E0,-2.810626756E0,3.015066573E0
6.494103542E0,6.122460173E-1,-5.980631572E-1,-3.564536921E0,3.665848904E0
6.504121542E0,8.389430067E-1,-1.132576436E-1,-4.818438989E0,4.892239462E0
6.514138542E0,1.486182709E0,7.679025525E-1,-5.026511573E0,5.297568496E0
6.524156542E0,2.555724699E0,2.142046763E0,-4.728704109E0,5.786254023E0
6.534173542E0,3.877472886E0,3.740347493E0,-5.158935805E0,7.459196605E0
6.544190542E0,4.983449169E0,5.225389411E0,-5.836983610E0,9.284925297E0
6.554208542E0,5.663483273E0,6.325697987E0,-6.091666689E0,1.044977994E1
6.564225542E0,6.140917786E0,6.772387256E0,-6.397308837E0,1.115803122E1
6.574243542E0,6.432723668E0,7.186792878E0,-6.322103704E0,1.153251581E1
6.584260542E0,6.127251674E0,7.526544174E0,-6.118829345E0,1.147310563E1
6.594277542E0,6.073451443E0,7.875383213E0,-5.803561510E0,1.151476441E1
6.604295542E0,5.810750661E0,8.788239411E0,-5.132019902E0,1.171902741E1
6.614312542E0,5.427835220E0,9.971705918E0,-4.105348236E0,1.207270468E1
6.624330542E0,5.441386142E0,1.089284353E1,-2.837842621E0,1.250264268E1
6.634347542E0,5.629227360E0,1.152915625E1,-1.670256274E0,1.293829202E1
6.644365542E0,6.172971053E0,1.209580992E1,-3.888000798E-1,1.358548323E1
6.654382542E0,6.175498220E0,1.214194679E1,1.102425853E0,1.366671112E1
6.664399542E0,5.289717554E0,1.092229712E1,4.228742613E0,1.285145713E1
6.674417542E0,3.373914183E0,7.558586331E0,1.001449584E1,1.299252290E1
6.684434542E0,1.790587733E0,2.452871883E0,1.387684257E1,1.420526468E1
6.694452542E0,1.055371701E0,-3.904847211E0,8.327718553E0,9.258106581E0
6.704469542E0,-1.078314275E0,-1.410240827E1,1.030027617E1,1.749675312E1
6.714486542E0,-1.050167299E1,-2.862917938E1,9.401686007E0,3.191091893E1
6.724504542E0,-1.586833405E1,-3.444363893E1,1.958365546E-1,3.792369497E1
6.734521542E0,-1.209785410E1,-2.230355390E1,1.947075450E0,2.544794084E1
6.744539542E0,-5.680484637E0,-5.496528309E0,2.642158533E0,8.334310462E0
6.754556542E0,3.886448362E-1,2.694781135E0,1.330116723E0,3.030198124E0
6.764574542E0,3.121023275E0,7.323808928E0,4.608290058E-1,7.974417024E0
6.774591542E0,5.297170415E0,9.479446959E0,-7.318989068E-2,1.085934095E1
6.784609042E0,7.299879783E0,9.287781662E0,-1.669853255E0,1.193061369E1
6.794627042E0,6.951676337E0,7.155873971E0,-7.800383901E0,1.266405643E1
6.804644042E0,6.673587438E0,1.669820364E0,-1.446861003E1,1.602079104E1
6.814662042E0,8.428487129E0,-5.797439475E0,-1.689895493E1,1.975409774E1
6.824679042E0,1.096188511E1,-1.002354733E1,-5.131911144E0,1.571530904E1
6.834697042E0,1.001712124E1,-1.069071932E1,7.710688782E0,1.655563104E1
6.844714042E0,5.637876561E0,-4.693802079E0,5.722889230E0,9.304240496E0
6.854731042E0,2.925463732E0,2.128158456E-1,4.783394871E0,5.611104626E0
6.864749042E0,2.476568894E0,2.690601545E0,6.987011938E-1,3.723024781E0
6.874766042E0,1.626879874E0,4.459415270E0,-5.166039587E0,7.015774205E0
6.884784042E0,1.806486751E0,4.528978425E0,-7.351904799E0,8.821878719E0
6.894801042E0,2.578910078E0,3.539047739E0,-6.300603492E0,7.672889967E0
6.904818042E0,3.429351050E0,1.716910331E0,-5.752009533E0,6.913309148E0
6.914836042E0,3.694256524E0,-4.679707950E-1,-5.203813770E0,6.398922228E0
6.924853042E0,3.098168263E0,-2.417290991E0,-4.354682282E0,5.865594608E0
6.934871042E0,2.095702170E0,-3.604751732E0,-3.537883558E0,5.468347347E0
6.944888042E0,1.118286499E0,-3.545156325E0,-3.292764770E0,4.965984081E0
6.954906042E0,5.459236083E-1,-2.558011837E0,-3.398237430E0,4.288295090E0
6.964923042E0,2.365509365E-1,-1.784773116E0,-3.390759426E0,3.839091156E0
6.974940042E0,-4.196236040E-1,-1.068662860E0,-3.064480700E0,3.272486247E0
6.984958042E0,-1.309956985E0,-4.125695962E-1,-1.862429402E0,2.314053641E0
6.994975042E0,-2.726707225E0,-3.731809974E-2,3.285398448E-1,2.746682246E0
7.004993042E0,-3.763873181E0,3.458715767E-1,2.595534589E0,4.585102864E0
7.015010042E0,-3.816452513E0,7.897559363E-1,3.311827862E0,5.114413751E0
7.025028042E0,-3.180409352E0,1.116217096E0,2.123339181E0,3.983655799E0
7.035045042E0,-2.361886722E0,1.154931511E0,1.837418083E-1,2.635552454E0
7.045062042E0,-1.764975028E0,1.000474970E0,-1.368000541E0,2.446939414E0
7.055080042E0,-1.241541054E0,9.307486778E-1,-1.989420401E0,2.522996397E0
7.065097042E0,-6.793001322E-1,1.150816240E0,-1.249067005E0,1.829206131E0
7.075115042E0,-1.825250758E-1,1.501840968E0,2.688538063E-1,1.536594958E0
7.085132042E0,4.577858225E-2,1.727973847E0,1.480390896E0,2.275861705E0
7.095149042E0,1.089771894E-1,1.932234047E0,2.037030916E0,2.809786361E0
7.105167042E0,4.468544528E-2,1.947808106E0,2.257626482E0,2.982084931E0
7.115184042E0,-2.714526013E-2,1.701509349E0,2.237207859E0,2.810866403E0
7.125202042E0,-2.867300601E-1,1.505297842E0,2.304409908E0,2.767388795E0
7.135219042E0,-7.574540167E-1,1.330584792E0,2.547283366E0,2.972010266E0
7.145237042E0,-1.171570932E0,1.224458998E0,3.053569211E0,3.492300561E0
7.155254042E0,-1.700131161E0,9.631843525E-1,3.687075558E0,4.172852290E0
7.165271042E0,-2.200152591E0,5.449271697E-1,3.859169347E0,4.475578744E0
7.175289042E0,-2.809873927E0,-2.650601327E-2,3.304129126E0,4.337437416E0
7.185306042E0,-3.657908769E0,-5.900863856E-1,2.302043101E0,4.362098228E0
7.195324042E0,-4.285512645E0,-1.116188444E0,1.149428404E0,4.575224686E0
7.205341042E0,-4.561562034E0,-1.887101144E0,3.748147094E-1,4.950705504E0
7.215359042E0,-4.871110415E0,-2.818713455E0,1.531768772E-1,5.629948967E0
7.225376042E0,-5.333491564E0,-3.454160786E0,6.870972481E-1,6.391358356E0
7.235393042E0,-6.179764348E0,-3.812675797E0,1.894464542E0,7.504330752E0
7.245411042E0,-7.190439202E0,-4.145753081E0,2.416678495E0,8.644652652E0
7.255428042E0,-7.381784656E0,-4.545243040E0,2.948715770E0,9.156686284E0
7.265446042E0,-6.299049886E0,-5.417510791E0,3.732766871E0,9.108292988E0
7.275463042E0,-5.134021404E0,-6.334481674E0,5.139177479E0,9.638204138E0
7.285481042E0,-3.833713494E0,-6.620952557E0,7.744116729E0,1.088603306E1
7.295498042E0,-2.969724524E0,-6.031764303E0,1.012304121E1,1.215225937E1
7.305515042E0,-2.125366703E0,-4.981393288E0,1.034932846E1,1.168075607E1
7.315533042E0,-1.954133039E0,-3.703633996E0,7.525368884E0,8.612010076E0
7.325550042E0,-3.635884062E0,-2.819108142E0,4.273989537E0,6.279650483E0
7.335568042E0,-4.770489774E0,-1.994088233E0,2.928186196E0,5.942073288E0
7.345585042E0,-4.426125317E0,-2.139662853E0,3.866501756E0,6.254484653E0
7.355603042E0,-2.932916009E0,-3.632304981E0,4.629510773E0,6.574800818E0
7.365620042E0,-9.154833519E-1,-5.789392537E0,3.451088659E0,6.801851854E0
7.375637042E0,9.011592816E-1,-7.219296380E0,-9.767995942E-1,7.340603907E0
7.385655042E0,3.126449784E0,-7.469812734E0,-4.767751815E0,9.397033995E0
7.395672042E0,4.630697173E0,-6.923357102E0,-5.796201035E0,1.014752070E1
7.405690042E0,4.892664714E0,-6.455946470E0,-5.675663023E0,9.890933403E0
7.415707042E0,4.567447257E0,-5.967155494E0,-5.403602604E0,9.255670707E0
7.425725042E0,4.233526804E0,-5.973414938E0,-4.721469934E0,8.711871990E0
7.435742042E0,3.002255216E0,-6.927065991E0,-2.092644076E0,7.834343549E0
7.445759042E0,2.145674814E0,-7.482072591E0,1.585047578E0,7.943406478E0
7.455777042E0,1.417766778E0,-7.569510099E0,1.153970228E0,7.787117122E0
7.465794042E0,1.349208613E0,-7.133290270E0,-8.688955151E-1,7.311578036E0
7.475812042E0,3.595586221E0,-5.576098389E0,-9.136044954E-1,6.697446281E0
7.485829042E0,5.932951037E0,-3.120672442E0,-5.829106826E-1,6.728914427E0
7.495847042E0,5.352668678E0,-1.173537936E0,-1.830173821E0,5.777351424E0
7.505864042E0,3.812629604E0,-2.242027134E-1,-3.083298209E0,4.908476260E0
7.515881042E0,2.431524576E0,4.835419303E-1,-4.489476975E0,5.128501542E0
7.525899042E0,1.776898963E0,1.065699492E0,-5.123483552E0,5.526587467E0
7.535916042E0,2.093391935E0,1.758969353E0,-5.319269382E0,5.980877004E0
7.545934042E0,2.788166431E0,2.727239614E0,-5.792361753E0,6.983062554E0
7.555951042E0,3.480107220E0,4.330012295E0,-6.025963866E0,8.195876600E0
7.565969042E0,3.745665536E0,5.531448466E0,-6.471403000E0,9.300859596E0
7.575986042E0,4.573058830E0,6.204499240E0,-7.027073843E0,1.043016993E1
7.586004042E0,5.386744496E0,6.754714631E0,-7.048996224E0,1.115040510E1
7.596021042E0,5.576300118E0,7.078468530E0,-6.969319725E0,1.139171880E1
7.606038042E0,5.495153629E0,7.429136578E0,-6.896721280E0,1.153054847E1
7.616056042E0,5.576619376E0,7.923933229E0,-6.461886656E0,1.164660382E1
7.626073042E0,5.006278453E0,8.695617760E0,-5.864780104E0,1.162205824E1
7.636091042E0,4.542171498E0,9.596331046E0,-4.660156615E0,1.159473808E1
7.646108042E0,3.977886244E0,1.021859641E1,-3.420724068E0,1.148671601E1
7.656126042E0,3.907158616E0,1.094957789E1,-1.755237660E0,1.175755092E1
7.666143042E0,4.027781704E0,1.133492578E1,9.175149670E-1,1.206421989E1
7.676160042E0,3.212260889E0,1.032975432E1,5.555651261E0,1.216090890E1
7.686178042E0,9.467973845E-1,7.104517291E0,9.073221007E0,1.156260916E1
7.696195042E0,-1.953908214E0,2.748321750E0,5.596753094E0,6.534116232E0
7.706213042E0,-2.003157849E0,-1.084011217E0,5.220108206E0,5.695371047E0
7.716230042E0,-2.126870899E0,-7.073661534E0,5.600827433E0,9.269818513E0
7.726248042E0,-5.028562192E0,-1.494308351E1,7.197759916E0,1.733176074E1
7.736265042E0,-6.645305040E0,-1.916886626E1,6.702693708E0,2.136660047E1
7.746283042E0,-6.532227491E0,-1.679786008E1,3.557987747E0,1.837110165E1
7.756300042E0,-3.929214313E0,-9.215314779E0,1.890002824E0,1.019474680E1
7.766317042E0,1.269310943E0,-2.112011370E0,1.109835445E0,2.702494590E0
7.776335042E0,4.604200516E0,1.585758453E0,1.148504251E0,5.003234381E0
7.786351542E0,6.871897511E0,1.816683710E0,1.772679904E0,7.325688305E0
7.796369542E0,8.012172976E0,1.084535712E-1,3.833137543E0,8.882545885E0
7.806386542E0,6.132701864E0,-1.570400156E0,5.727806738E-1,6.356435046E0
7.816404542E0,1.780674217E0,-2.322586563E0,-1.122944902E1,1.160455662E1
7.826421542E0,1.726440707E0,-2.958975295E0,-1.609193392E1,1.645255207E1
7.836439542E0,4.885315933E0,-2.505452970E0,-1.005343128E1,1.145491540E1
7.846456542E0,5.956204829E0,2.569962376E-1,-3.041263161E0,6.692660505E0
7.856473542E0,6.766745862E0,3.611922757E0,6.045015848E0,9.766117559E0
7.866491542E0,7.722742233E0,5.145717005E0,6.679072711E0,1.143368547E1
7.876508542E0,7.441699905E0,5.515882593E0,4.742078738E-1,9.275167458E0
7.886526542E0,5.217599750E0,5.132074281E0,-5.844719476E0,9.366017261E0
7.896543542E0,2.782962409E0,4.414391125E0,-8.488231639E0,9.964025549E0
7.906561542E0,2.732473164E0,3.011008497E0,-8.479009411E0,9.403519679E0
7.916578542E0,3.592008310E0,1.444613099E-1,-7.813989787E0,8.601269044E0
7.926595542E0,4.268142321E0,-3.555193655E0,-6.455068803E0,8.516123182E0
7.936613542E0,3.295458582E0,-6.239044005E0,-4.562459582E0,8.402485037E0
7.946630542E0,1.378019745E0,-6.050014048E0,-3.053214285E0,6.915470040E0
7.956648542E0,2.090027666E-1,-5.007981162E0,-2.435843621E0,5.572871040E0
7.966665542E0,-4.511536912E-1,-4.168652532E0,-2.132726886E0,4.704224437E0
7.976683542E0,-1.875097102E0,-3.586890827E0,7.434518355E-1,4.115154381E0
7.986700542E0,-3.574652897E0,-2.524379237E0,3.793401620E0,5.791418627E0
7.996718542E0,-4.701789668E0,-9.286565441E-1,3.403557227E0,5.878216639E0
8.006735542E0,-5.322218133E0,-4.604389966E-2,1.997241052E0,5.684812900E0
8.016752542E0,-5.246573288E0,1.490320784E-1,1.044758273E0,5.351659713E0
8.026770542E0,-4.971054826E0,5.995635527E-1,2.015406597E-1,5.011135717E0
8.036787542E0,-4.739636064E0,1.565434701E0,-1.232956756E0,5.141489879E0
8.046805542E0,-4.317332023E0,2.887653882E0,-2.420306400E0,5.730251636E0
8.056822542E0,-3.644425090E0,3.633283221E0,-2.996600958E0,5.955014567E0
8.066840542E0,-3.590251806E0,3.351380768E0,-3.440136824E0,5.996349093E0
8.076857542E0,-3.825902199E0,2.491703827E0,-2.469725897E0,5.190921074E0
8.086875542E0,-3.097497295E0,1.995609679E0,-9.239314822E-1,3.798762544E0
8.096892542E0,-1.555189210E0,1.979895871E0,5.085815350E-1,2.568512472E0
8.106909542E0,-3.250227445E-1,2.001143484E0,1.260785995E0,2.387424627E0
8.116927542E0,4.997046576E-1,1.773815433E0,1.401197523E0,2.315055169E0
8.126944542E0,9.860658230E-1,1.441397715E0,1.187789208E0,2.112059749E0
8.136962542E0,1.252356210E0,9.587486547E-1,1.335849187E0,2.066903024E0
8.146979542E0,1.426544764E0,3.870424068E-1,1.898685501E0,2.406208308E0
8.156997542E0,1.471086660E0,-1.182827407E-1,2.705948732E0,3.082246796E0
8.167014542E0,1.277653750E0,-5.476706833E-1,3.531312457E0,3.795063893E0
8.177032542E0,5.987107363E-1,-8.155234462E-1,4.213353033E0,4.333113987E0
8.187049542E0,-9.895918402E-1,-1.012328446E0,4.201993648E0,4.434055875E0
8.197066542E0,-3.015831281E0,-1.062556613E0,3.557516462E0,4.783323975E0
8.207084542E0,-4.095187529E0,-1.340581777E0,2.372940883E0,4.919204086E0
8.217101542E0,-4.714120276E0,-1.933384194E0,1.071505777E0,5.206633178E0
8.227119542E0,-5.378349649E0,-2.882634047E0,1.480503309E-1,6.103944863E0
8.237136542E0,-5.946782625E0,-3.764592388E0,-1.848772645E-1,7.040636267E0
8.247154542E0,-6.089910185E0,-4.104672883E0,6.050932646E-1,7.368954023E0
8.257171542E0,-5.887639793E0,-3.869727665E0,1.936560694E0,7.306802437E0
8.267189542E0,-5.017791620E0,-3.756795711E0,2.879836739E0,6.898203129E0
8.277206542E0,-4.039857082E0,-3.871114624E0,4.026835917E0,6.893575355E0
8.287223542E0,-3.568725867E0,-4.209086028E0,5.265525284E0,7.627448198E0
8.297241542E0,-3.268728913E0,-4.073440565E0,6.665246969E0,8.467763808E0
8.307258542E0,-3.177821082E0,-3.908766600E0,7.675966262E0,9.181364888E0
8.317276542E0,-3.865993633E0,-4.421419478E0,7.218894092E0,9.306303717E0
8.327293542E0,-5.473244696E0,-4.282678499E0,5.325710675E0,8.755623154E0
8.337311542E0,-6.169721171E0,-3.435368419E0,4.598974567E0,8.427204908E0
8.347328542E0,-6.133048019E0,-2.317719925E0,4.707143086E0,8.071139925E0
8.357346542E0,-5.641550367E0,-1.492787139E0,4.449747484E0,7.338648149E0
8.367363542E0,-3.997352502E0,-1.105837703E0,3.332288439E0,5.320324266E0
8.377380542E0,-2.056188002E0,-2.191959180E0,2.075052874E0,3.652182714E0
8.387398542E0,-5.987165835E-1,-5.076203551E0,-4.466360593E-1,5.130866185E0
8.397415542E0,4.564684448E-1,-7.377132027E0,-4.101165723E0,8.452810223E0
8.407433542E0,1.992441950E0,-7.133314244E0,-6.087029262E0,9.586757651E0
8.417450542E0,3.741254689E0,-6.386142409E0,-6.157628544E0,9.627886103E0
8.427468542E0,4.812162588E0,-6.546587668E0,-5.534386691E0,9.830775906E0
8.437485542E0,5.024061590E0,-6.918783410E0,-4.180831697E0,9.517883820E0
8.447503542E0,4.634115456E0,-6.482291100E0,-1.768560394E0,8.162287047E0
8.457520542E0,4.015030096E0,-5.908496811E0,1.021754158E0,7.216285943E0
8.467537542E0,3.587968469E0,-5.926282287E0,1.486035360E0,7.085382175E0
8.477555542E0,3.840463812E0,-5.493276088E0,1.121659684E-1,6.703568130E0
8.487572542E0,4.278378749E0,-4.262278149E0,-2.126729835E0,6.402696270E0
8.497590542E0,2.198275635E0,-3.381356519E0,-5.268831884E0,6.635252603E0
8.507607542E0,1.609847227E0,-2.235429136E0,-4.846333131E0,5.574557950E0
8.517625542E0,2.908556801E0,-8.685091603E-1,-2.295020595E0,3.805408041E0
8.527642542E0,2.927394775E0,9.224742830E-2,-1.835209005E0,3.456319119E0
8.537660542E0,2.326924466E0,7.894834560E-1,-2.912299896E0,3.810426785E0
8.547677542E0,2.284378078E0,1.154562551E0,-4.367554927E0,5.062305200E0
8.557694542E0,1.943058997E0,1.299433166E0,-4.685341450E0,5.236070027E0
8.567712542E0,2.287808493E0,1.831114638E0,-4.650949005E0,5.497124263E0
8.577729542E0,2.996898874E0,2.934702918E0,-4.889709531E0,6.442293332E0
8.587747542E0,3.614442907E0,4.471978013E0,-5.075481420E0,7.669634706E0
8.597764542E0,4.967381605E0,5.630221971E0,-5.529546366E0,9.324707098E0
8.607782542E0,5.852513815E0,6.654081126E0,-6.045757860E0,1.072753008E1
8.617799542E0,6.107745363E0,7.334261411E0,-6.184763718E0,1.137309308E1
8.627817542E0,6.101626836E0,7.651027302E0,-6.075597371E0,1.151872181E1
8.637834542E0,5.897485335E0,7.939573946E0,-5.928955634E0,1.153124810E1
8.647851542E0,5.688677171E0,8.404590143E0,-5.494717426E0,1.154080166E1
8.657869542E0,5.345952566E0,9.022030973E0,-4.827068895E0,1.154455914E1
8.667886542E0,4.912931748E0,9.852193508E0,-3.569620491E0,1.157345263E1
8.677904542E0,4.757627946E0,1.058926545E1,-2.178224948E0,1.181152955E1
8.687921542E0,4.787742861E0,1.127717633E1,-1.111058975E0,1.230169256E1
8.697939542E0,4.585967143E0,1.133352010E1,-1.935463464E-1,1.222772394E1
8.707956542E0,4.072716680E0,1.042452365E1,2.688903221E0,1.151033949E1
8.717974542E0,3.235894750E0,8.267167127E0,7.955996436E0,1.192119736E1
8.727991542E0,2.816699966E0,3.737025690E0,1.446141561E1,1.519972701E1
8.738008542E0,1.499890776E0,-4.413382480E0,1.335672455E1,1.414672075E1
8.748026542E0,-4.538129902E0,-1.741831047E1,1.114316985E1,2.116984640E1
8.758043542E0,-1.323331555E1,-3.054901908E1,2.825527800E0,3.341177659E1
8.768061542E0,-1.250488463E1,-3.298183268E1,-2.087950955E0,3.533458597E1
8.778078542E0,-1.043444521E1,-2.062473174E1,3.131160593E0,2.332512321E1
8.788096667E0,-5.334310759E0,-7.172411066E0,3.678912553E0,9.666061729E0
8.798113667E0,4.579477172E-1,4.819883251E-1,1.688438483E0,1.814622101E0
8.808131667E0,3.552866756E0,4.909857282E0,9.206952676E-1,6.130027773E0
8.818148667E0,8.220165453E0,6.741054366E0,1.327881479E0,1.071336564E1
8.828165667E0,1.088518601E1,5.641411203E0,1.521012819E-1,1.226115532E1
8.838183667E0,8.916815005E0,2.755480496E0,-6.545410039E0,1.139932696E1
8.848200667E0,5.282793281E0,-4.892716169E-1,-1.253218411E1,1.360892832E1
8.858218667E0,7.629765657E0,-2.164494808E0,-1.066012902E1,1.328671188E1
8.868235667E0,1.000428076E1,-1.349467791E0,-5.678662060E0,1.158248244E1
8.878253667E0,9.451354596E0,1.003261169E0,3.652750356E0,1.018220123E1
8.888270667E0,7.635777764E0,3.054673750E0,3.671505300E0,9.006446854E0
8.898288667E0,5.125407286E0,3.188948041E0,-6.918016255E-1,6.076000242E0
8.908305667E0,2.548424450E0,2.334345313E0,-4.969010054E0,6.052660253E0
8.918322667E0,1.588035505E0,1.198695581E0,-8.103625767E0,8.344308146E0
8.928340667E0,2.000666643E0,-2.478979701E-1,-7.907020158E0,8.159968639E0
8.938357667E0,2.386506278E0,-1.996970910E0,-5.990967695E0,6.750925785E0
8.948375667E0,1.993857414E0,-3.385991022E0,-4.956680616E0,6.325273537E0
8.958392667E0,1.321782686E0,-4.017447628E0,-3.817655870E0,5.697498684E0
8.968410667E0,6.572020425E-1,-3.753087991E0,-2.441666864E0,4.525408387E0
8.978427667E0,-5.647103102E-1,-3.117111488E0,-1.169897459E0,3.376972287E0
8.988445667E0,-1.921972768E0,-2.054126859E0,2.668002641E-1,2.825703250E0
8.998462667E0,-2.522763652E0,-6.880705172E-1,8.855479467E-1,2.760792032E0
9.008479667E0,-2.487081018E0,5.561918306E-1,5.517023385E-1,2.607546129E0
9.018497667E0,-2.395315108E0,7.961498666E-1,3.797707637E-2,2.524446738E0
9.028514667E0,-2.322483798E0,7.561245060E-1,-2.513308704E-1,2.455366055E0
9.038532667E0,-2.222679428E0,8.307542735E-1,-4.078655112E-1,2.407656699E0
9.048549667E0,-2.081753491E0,1.350238454E0,-8.001680732E-1,2.607126852E0
9.058567667E0,-1.885936378E0,2.040855433E0,-1.477539940E0,3.147216420E0
9.068584667E0,-1.727601087E0,2.682473915E0,-2.098062837E0,3.818656765E0
9.078602667E0,-1.694248862E0,2.791265455E0,-2.464318392E0,4.090783200E0
9.088619667E0,-1.597156284E0,2.484876618E0,-2.204533617E0,3.685849763E0
9.098636667E0,-1.356414868E0,2.153657579E0,-1.441708202E0,2.925170901E0
9.108654667E0,-7.117428236E-1,1.956816326E0,-1.914366710E-1,2.091017929E0
9.118671667E0,-9.060406834E-3,1.970601137E0,7.952051027E-1,2.125018138E0
9.128689667E0,5.573419780E-1,1.994237922E0,1.426835078E0,2.514651727E0
9.138706667E0,8.298559950E-1,1.829893740E0,2.113060945E0,2.915852985E0
9.148724667E0,9.454186110E-1,1.454688436E0,2.730970429E0,3.235449626E0
9.158741667E0,8.678311756E-1,9.608326024E-1,3.095941644E0,3.355768899E0
9.168759667E0,6.521308985E-1,4.319203717E-1,3.375320438E0,3.464768099E0
9.178776667E0,3.401984619E-1,-2.663225466E-1,3.864588547E0,3.888663952E0
9.188794667E0,-6.353719014E-1,-1.305354057E0,4.651483148E0,4.872775610E0
9.198811667E0,-1.982995773E0,-2.364994664E0,4.906687506E0,5.796641638E0
9.208828667E0,-3.165842183E0,-2.351945432E0,4.343381953E0,5.866785392E0
9.218846667E0,-3.995628450E0,-1.726290434E0,3.227618601E0,5.418731144E0
9.228863667E0,-4.547811137E0,-1.208820620E0,1.853348676E0,5.057542362E0
9.238881667E0,-4.831867704E0,-1.353685972E0,6.906557174E-1,5.065216337E0
9.248898667E0,-5.022425539E0,-1.957789888E0,1.093771389E-1,5.391628965E0
9.258916667E0,-5.382305875E0,-2.535831009E0,-3.623007908E-1,5.960781601E0
9.268933667E0,-5.689826149E0,-2.957877772E0,-5.040677038E-1,6.432514809E0
9.278951667E0,-5.878113509E0,-3.156865538E0,-3.133315292E-1,6.679535545E0
9.288968667E0,-5.569424377E0,-3.273913347E0,7.398555055E-1,6.502644282E0
9.298985667E0,-4.831057865E0,-3.690774799E0,3.877110067E0,7.210611706E0
9.309003667E0,-4.234183154E0,-4.338667928E0,6.267331080E0,8.719620705E0
9.319020667E0,-3.930578468E0,-4.962419658E0,7.743047858E0,1.000149219E1
9.329038667E0,-3.310485049E0,-5.451994160E0,8.830432334E0,1.089312108E1
9.339055667E0,-2.231222356E0,-5.263168271E0,9.376031349E0,1.098131401E1
9.349073667E0,-1.554405098E0,-4.181436299E0,8.057501761E0,9.209990193E0
9.359090667E0,-2.867181610E0,-3.624517660E0,5.626462212E0,7.281135603E0
9.369108667E0,-4.666095340E0,-2.909436514E0,4.109693302E0,6.864899532E0
9.379125667E0,-4.854181849E0,-1.728817016E0,3.856353328E0,6.436097473E0
9.389142667E0,-4.338118874E0,-1.546421310E0,3.594489284E0,5.842178313E0
9.399160667E0,-2.707377791E0,-2.643196414E0,2.602313851E0,4.592212883E0
9.409177667E0,-5.872113097E-1,-4.590512769E0,1.841650919E-1,4.631580873E0
9.419195667E0,6.184107368E-1,-6.188111249E0,-3.107860023E0,6.952261976E0
9.429212667E0,2.286068654E0,-6.361918564E0,-4.976283991E0,8.394255183E0
9.439230667E0,3.933343032E0,-6.284706082E0,-5.444150705E0,9.198233246E0
9.449247667E0,4.528320906E0,-6.608571078E0,-5.665657852E0,9.812164940E0
9.459265667E0,4.565233794E0,-6.434121737E0,-5.397983429E0,9.559158291E0
9.469282667E0,4.192163893E0,-5.954136668E0,-3.164778575E0,7.939886964E0
9.479300667E0,3.456142407E0,-5.743247480E0,4.877174270E-1,6.720690459E0
9.489317667E0,3.331305230E0,-5.795444990E0,1.943013974E0,6.961327493E0
9.499334667E0,4.178482578E0,-5.426316113E0,3.714449590E-1,6.858760425E0
9.509352667E0,4.309620422E0,-4.632813281E0,-2.539247537E0,6.817885679E0
9.519369667E0,4.287945086E0,-3.292985795E0,-3.950799310E0,6.696196211E0
9.529387667E0,4.988933272E0,-1.476829503E0,-2.882945119E0,5.948264716E0
9.539404667E0,4.155364442E0,-1.324417734E-1,-1.949904479E0,4.592028086E0
9.549422667E0,2.840553683E0,4.630410075E-1,-2.371545884E0,3.729260259E0
9.559439667E0,2.535081981E0,1.053206331E0,-3.938424262E0,4.800736391E0
9.569457667E0,1.949881675E0,1.667075681E0,-4.858419618E0,5.494126051E0
9.579474667E0,1.998023848E0,2.607256503E0,-4.701795807E0,5.735570554E0
9.589491667E0,2.658431919E0,3.522721143E0,-4.617747053E0,6.387520048E0
9.599509667E0,3.348005170E0,4.741989568E0,-4.817721243E0,7.543609326E0
9.609526667E0,4.138754548E0,5.856775850E0,-5.083252369E0,8.790367866E0
9.619544667E0,4.961357219E0,6.713415747E0,-5.529577941E0,1.001305391E1
9.629561667E0,5.374226777E0,7.183531886E0,-5.823982911E0,1.069599087E1
9.639579667E0,5.345016426E0,7.307946602E0,-5.844897816E0,1.077673952E1
9.649596667E0,5.302719423E0,7.741712939E0,-5.773461213E0,1.101752272E1
9.659614667E0,5.366405541E0,8.142371757E0,-5.553635141E0,1.122227203E1
9.669631667E0,5.159025267E0,8.852682159E0,-4.994596885E0,1.139875086E1
9.679648667E0,4.721327554E0,9.750190001E0,-4.148139622E0,1.160018109E1
9.689666667E0,4.494901730E0,1.014154999E1,-2.792457118E0,1.143909938E1
9.699683667E0,4.334539209E0,1.055297412E1,-1.450845939E0,1.150036725E1
9.709701667E0,4.142629206E0,1.102594838E1,1.382153141E-1,1.177930464E1
9.719718667E0,3.564760285E0,1.074500253E1,3.086316542E0,1.173405066E1
9.729736667E0,2.275725953E0,8.904690219E0,9.237096827E0,1.303059455E1
9.739753667E0,7.494259357E-1,3.485336385E0,1.420131743E1,1.464194747E1
9.749771667E0,-1.227446048E0,-4.404508161E0,1.133829845E1,1.222551953E1
9.759788667E0,-4.680088019E0,-1.610520476E1,9.561530757E0,1.930553585E1
9.769805667E0,-1.058497710E1,-2.886832582E1,3.489153155E0,3.094505074E1
9.779823667E0,-1.120282431E1,-3.329446692E1,1.672104871E-1,3.512908709E1
9.789840917E0,-9.820999782E0,-2.243091561E1,4.097987761E0,2.482723334E1
9.799858917E0,-5.221788695E0,-6.832109547E0,4.525788769E0,9.717384526E0
9.809875917E0,-3.334183230E-1,-7.097818136E-2,1.196387685E0,1.244005295E0
9.819893917E0,3.251982780E0,4.128112616E0,-1.914466113E-1,5.258645983E0
9.829910917E0,8.188518568E0,6.663544260E0,9.964246041E-1,1.060412752E1
9.839927917E0,1.144068086E1,6.001397958E0,1.113247880E0,1.296708436E1
9.849945917E0,1.125995044E1,3.556150260E0,-1.020030691E0,1.185213699E1
9.859962917E0,7.765212899E0,1.339577225E0,-6.760795151E0,1.038274287E1
9.869980917E0,5.902998090E0,-2.520687890E-1,-1.068167017E1,1.220684245E1
9.879997917E0,7.998294024E0,-5.305131984E-1,-6.552786301E0,1.035341296E1
9.890015917E0,8.316946812E0,1.151977497E0,-3.717739234E0,9.182605373E0
9.900032917E0,7.418941373E0,3.152860195E0,1.143954971E0,8.141857987E0
9.910050917E0,5.507432781E0,2.971807594E0,-2.986232968E-1,6.265192103E0
9.920067917E0,3.105780169E0,1.648279806E0,-4.638186287E0,5.820263638E0
9.930084917E0,1.651955658E0,1.090796911E0,-7.164222625E0,7.432690040E0
9.940102917E0,1.101391919E0,-3.683003265E-1,-8.092710770E0,8.175614772E0
9.950119917E0,1.083517273E0,-2.693292434E0,-7.303353029E0,7.859185663E0
9.960137917E0,8.666851944E-1,-4.080931433E0,-6.188978975E0,7.463819756E0
9.970154917E0,2.304823306E-1,-4.600522032E0,-4.874990920E0,6.706971115E0
9.980172917E0,-9.478880364E-1,-4.264548622E0,-2.822576126E0,5.201134748E0
9.990189917E0,-2.372283510E0,-3.232149609E0,-7.726434749E-1,4.083074587E0
1.000020792E1,-3.318733132E0,-1.702757145E0,6.903713965E-1,3.793413260E0
1.001022492E1,-3.504325803E0,-1.672367996E-1,8.736973947E-1,3.615468796E0
1.002024192E1,-2.915434003E0,7.399926227E-1,5.276808802E-1,3.053815912E0
1.003025992E1,-2.053453990E0,8.861695057E-1,1.162894249E-2,2.236538601E0
1.004027692E1,-1.534112190E0,6.393427455E-1,-4.366092539E-1,1.718396636E0
1.005029492E1,-1.248905768E0,7.426577836E-1,-6.121567011E-1,1.576718753E0
1.006031192E1,-9.155193123E-1,1.103808720E0,-9.678896070E-1,1.730138605E0
1.007032992E1,-6.556402512E-1,1.718141170E0,-1.395131621E0,2.308303589E0
1.008034692E1,-7.973899148E-1,2.165097656E0,-1.585701735E0,2.799630070E0
1.009036492E1,-7.738744600E-1,2.492675049E0,-1.806926461E0,3.174475361E0
1.010038192E1,-8.305288634E-1,2.548470935E0,-1.706229222E0,3.177373201E0
1.011039892E1,-7.815803593E-1,2.169011198E0,-8.603533908E-1,2.460830224E0
1.012041692E1,-5.236719561E-1,1.760666215E0,-7.741011858E-2,1.838523909E0
1.013043392E1,-1.355599473E-1,1.664009986E0,5.534703903E-1,1.758873277E0
1.014045192E1,1.898403811E-1,1.751300730E0,1.164623563E0,2.111739013E0
1.015046892E1,1.698693623E-1,1.663566182E0,1.592236437E0,2.309009509E0
1.016048692E1,1.143364549E-1,1.407793182E0,2.191453396E0,2.607186694E0
1.017050392E1,-2.934689762E-1,1.091900865E0,2.831495761E0,3.048891566E0
1.018052192E1,-9.640466706E-1,6.763006568E-1,3.447376846E0,3.642962487E0
1.019053892E1,-1.629599560E0,1.983580202E-1,4.120073572E0,4.435081382E0
1.020055592E1,-2.253807227E0,-5.015379059E-1,4.723755026E0,5.257855916E0
1.021057392E1,-2.641765600E0,-1.134759201E0,4.611690507E0,5.434546279E0
1.022059092E1,-2.904712549E0,-1.371816434E0,3.852700865E0,5.016227594E0
1.023060892E1,-3.137563002E0,-1.131550834E0,2.764882526E0,4.332353202E0
1.024062592E1,-3.392688715E0,-9.768089497E-1,1.677122513E0,3.908610030E0
1.025064392E1,-3.651363688E0,-1.155443142E0,8.416631314E-1,3.921211862E0
1.026066092E1,-3.861506479E0,-1.743795828E0,3.007325336E-1,4.247645964E0
1.027067892E1,-4.035756429E0,-2.567873166E0,8.473492563E-3,4.783447957E0
1.028069592E1,-4.180867657E0,-3.300132262E0,-1.078521851E-1,5.327490911E0
1.029071292E1,-4.386681462E0,-3.876866530E0,-5.250682712E-2,5.854555945E0
1.030073092E1,-4.766498465E0,-4.093639187E0,-6.588364854E-2,6.283448898E0
1.031074792E1,-4.710385367E0,-3.922184790E0,8.723811865E-2,6.130161036E0
1.032076592E1,-3.922716595E0,-3.882760524E0,3.106368399E0,6.333487143E0
1.033078292E1,-3.738343652E0,-4.673464293E0,6.528672384E0,8.856638463E0
1.034080092E1,-3.501544575E0,-5.368983579E0,7.878662331E0,1.015677701E1
1.035081792E1,-3.060778828E0,-5.252217021E0,8.299036206E0,1.028728111E1
1.036083592E1,-3.083993151E0,-4.378917237E0,7.903501303E0,9.547317046E0
1.037085292E1,-3.999485858E0,-3.370356152E0,6.428842871E0,8.287653974E0
1.038086992E1,-5.211171906E0,-2.815320316E0,4.928572465E0,7.705398605E0
1.039088792E1,-5.663237690E0,-2.383392343E0,4.042975402E0,7.355166231E0
1.040090492E1,-4.810154361E0,-1.905536245E0,3.730615972E0,6.378569502E0
1.041092292E1,-3.214059493E0,-2.117660950E0,3.046932621E0,4.909018712E0
1.042093992E1,-1.215708055E0,-3.357969995E0,1.343644549E0,3.815663669E0
1.043095792E1,3.802802481E-1,-4.872124030E0,-1.237992963E0,5.041312548E0
1.044097492E1,1.689970893E0,-5.913137162E0,-3.892542915E0,7.278260991E0
1.045099292E1,3.025444981E0,-5.519289765E0,-5.594619445E0,8.421142653E0
1.046100992E1,4.086917228E0,-4.999369968E0,-5.868538109E0,8.725613562E0
1.047102692E1,4.464831546E0,-5.253941365E0,-5.714378023E0,8.955039742E0
1.048104492E1,4.184604321E0,-5.382065554E0,-4.543774220E0,8.192888813E0
1.049106192E1,3.213748713E0,-4.946630421E0,-2.400733430E0,6.368740403E0
1.050107992E1,2.238108622E0,-4.573303828E0,-1.765641318E-1,5.094645523E0
1.051109692E1,2.265607785E0,-4.465971753E0,4.859832890E-1,5.031308189E0
1.052111492E1,2.944636168E0,-4.024673617E0,-3.020858717E-1,4.996011985E0
1.053113192E1,2.797364978E0,-3.313023618E0,-2.415571179E0,4.963502839E0
1.054114992E1,2.312898019E0,-2.289549209E0,-4.325621620E0,5.413181618E0
1.055116692E1,1.764946815E0,-1.398386766E0,-4.137383376E0,4.710463248E0
1.056118492E1,2.228118216E0,-4.100892073E-1,-2.513349050E0,3.383726849E0
1.057120192E1,1.388311429E0,2.992084569E-1,-2.601705448E0,2.964085958E0
1.058121892E1,5.038038482E-1,6.795598948E-1,-3.438067202E0,3.540610971E0
1.059123692E1,7.893032156E-1,1.072390460E0,-3.815423988E0,4.041098993E0
1.060125392E1,1.051959558E0,1.455246261E0,-4.149321637E0,4.521197920E0
1.061127192E1,1.846725535E0,2.059727322E0,-4.553917385E0,5.328323882E0
1.062128892E1,2.533004757E0,2.909330680E0,-4.918722246E0,6.250931661E0
1.063130692E1,3.769667187E0,3.978626794E0,-5.132483586E0,7.508811465E0
1.064132392E1,5.230589340E0,5.133709747E0,-5.602295669E0,9.224952974E0
1.065134192E1,5.399004938E0,6.267804120E0,-5.770606602E0,1.008635332E1
1.066135892E1,6.061234855E0,6.856324621E0,-5.896802380E0,1.088669066E1
1.067137692E1,6.162996873E0,7.266797406E0,-5.921459504E0,1.121840263E1
1.068139392E1,5.927875654E0,7.857023540E0,-5.614212295E0,1.133101533E1
1.069141092E1,5.701739851E0,8.453332533E0,-5.027336615E0,1.136849953E1
1.070142892E1,5.264170484E0,9.259087036E0,-4.168623880E0,1.143764000E1
1.071144592E1,5.118675971E0,9.939045711E0,-3.072782869E0,1.159428600E1
1.072146392E1,5.095477143E0,1.055619476E1,-1.933888224E0,1.188011191E1
1.073148092E1,5.140106601E0,1.099696022E1,-6.282178330E-1,1.215518357E1
1.074149892E1,4.861401406E0,1.078827192E1,1.154925663E0,1.188923412E1
1.075151592E1,4.244145348E0,9.009910864E0,4.751769328E0,1.103497056E1
1.076153392E1,3.601383151E0,5.036406816E0,1.134398896E1,1.292367749E1
1.077155092E1,1.988238240E0,-1.419588770E0,1.461788944E1,1.482062803E1
1.078156821E1,-7.925023735E-1,-1.117646974E1,1.101353941E1,1.571112938E1
1.079158521E1,-9.054305264E0,-2.394136134E1,8.794558496E0,2.706498634E1
1.080160221E1,-1.543585293E1,-3.152850021E1,1.468528796E0,3.513500332E1
1.081162021E1,-1.299792068E1,-2.405164684E1,5.459866852E-1,2.734457459E1
1.082163721E1,-7.522233607E0,-8.158512411E0,2.672387468E0,1.141433213E1
1.083165521E1,-1.743432716E0,-3.461750472E-1,2.009007258E0,2.682443841E0
1.084167221E1,1.043037657E0,2.706862067E0,1.329009553E0,3.190814347E0
1.085169021E1,6.239547451E0,4.159496377E0,1.026466721E0,7.568817373E0
1.086170721E1,1.077330890E1,2.892762010E0,1.263193293E0,1.122621548E1
1.087172521E1,9.513022256E0,-9.049150944E-2,-1.092408403E0,9.575966650E0
1.088174221E1,4.224839011E0,-3.173349423E0,-1.073635683E1,1.196615098E1
1.089176021E1,3.600241774E0,-4.271357120E0,-1.405648774E1,1.512584147E1
1.090177721E1,7.385668961E0,-1.886294813E0,-8.749865888E0,1.160458389E1
1.091179521E1,7.376295875E0,2.608423022E0,-1.086634570E0,7.899011722E0
1.092181221E1,8.026916730E0,6.474898465E0,7.571869451E0,1.279409666E1
1.093182921E1,8.892111104E0,7.298047850E0,5.401462523E0,1.270853806E1
1.094184721E1,6.754063836E0,7.078451573E0,-1.841841502E0,9.955613246E0
1.095186421E1,3.200888932E0,4.696186574E0,-8.459946318E0,1.019169024E1
1.096188221E1,2.748550960E0,2.048387232E0,-9.267047435E0,9.880718132E0
1.097189921E1,3.708888888E0,-4.281962800E-1,-7.572345414E0,8.442726095E0
1.098191721E1,3.412050016E0,-3.561923801E0,-6.199710370E0,7.922486677E0
1.099193421E1,2.377960280E0,-5.595701180E0,-5.016870099E0,7.882610759E0
1.100195221E1,1.123216652E0,-6.342190644E0,-3.752089287E0,7.454070822E0
1.101196921E1,-3.077696577E-1,-6.117724221E0,-2.572631046E0,6.643771692E0
1.102198721E1,-2.185655736E0,-5.064241317E0,-1.016506281E0,5.608646551E0
1.103200421E1,-3.593832641E0,-3.304490776E0,-1.874968171E-2,4.882176143E0
1.104202221E1,-3.917655537E0,-1.497758442E0,6.665977871E-1,4.246840928E0
1.105203921E1,-3.846373301E0,7.614828944E-2,8.947122878E-1,3.949796983E0
1.106205721E1,-3.568670318E0,7.513859224E-1,6.044167417E-1,3.696661770E0
1.107207421E1,-3.325588700E0,1.056256823E0,-9.415888309E-2,3.490570809E0
1.108209121E1,-3.023325657E0,1.539070190E0,-1.169147261E0,3.588333931E0
1.109210921E1,-2.415018763E0,2.204579811E0,-2.025378438E0,3.846380842E0
1.110212621E1,-2.006467373E0,2.686983288E0,-2.284432311E0,4.057637428E0
1.111214421E1,-1.736387845E0,2.683029401E0,-2.029028270E0,3.785583870E0
1.112216121E1,-1.359910187E0,2.340346311E0,-1.217659198E0,2.968041525E0
1.113217921E1,-7.998302503E-1,1.915926747E0,-4.311221536E-1,2.120464582E0
1.114219621E1,9.606259033E-2,1.681844578E0,3.487339349E-1,1.720303626E0
1.115221421E1,8.886177349E-1,1.640395421E0,8.161579422E-1,2.036333077E0
1.116223121E1,1.330530560E0,1.585195951E0,1.046963843E0,2.319329873E0
1.117224921E1,1.539310218E0,1.462457047E0,1.400664403E0,2.543642532E0
1.118226621E1,1.430181586E0,1.260218815E0,2.052316707E0,2.800995304E0
1.119228421E1,1.327034363E0,1.046057525E0,2.867757561E0,3.328556741E0
1.120230121E1,1.074023734E0,6.025649285E-1,3.638892162E0,3.841633460E0
1.121231921E1,5.016630363E-1,1.619094014E-3,4.404323974E0,4.432802510E0
1.122233621E1,-8.405775958E-1,-1.067719705E0,5.028120142E0,5.208511133E0
1.123235321E1,-2.292676885E0,-1.760841047E0,4.927294264E0,5.712718902E0
1.124237121E1,-3.303380097E0,-1.777630742E0,4.241183441E0,5.662148718E0
1.125238821E1,-4.096702543E0,-1.286404400E0,3.211856554E0,5.362259835E0
1.126240621E1,-4.678696382E0,-4.786565816E-1,2.113035218E0,5.155989700E0
1.127242321E1,-4.966525573E0,-2.994803524E-1,9.518718906E-1,5.065779786E0
1.128244121E1,-5.085509394E0,-6.947638249E-1,-4.425143570E-2,5.132938804E0
1.129245821E1,-5.228063343E0,-1.605253655E0,-5.079030387E-1,5.492490428E0
1.130247621E1,-5.596660123E0,-2.570007985E0,-2.897423995E-1,6.165346400E0
1.131249321E1,-6.057578591E0,-3.247734777E0,6.659408525E-1,6.905470063E0
1.132251121E1,-6.316461725E0,-3.653974178E0,1.932350699E0,7.548721431E0
1.133252821E1,-6.040478994E0,-4.008115472E0,3.199225692E0,7.923851408E0
1.134254621E1,-4.995146524E0,-4.266499838E0,5.031577016E0,8.274737273E0
1.135256321E1,-4.214265784E0,-5.162673345E0,7.306812242E0,9.889526647E0
1.136258121E1,-3.450251922E0,-6.049111238E0,8.984470214E0,1.136735194E1
1.137259821E1,-3.087061185E0,-5.651032212E0,9.046393397E0,1.110411389E1
1.138261621E1,-3.085417533E0,-4.329417048E0,7.197987957E0,8.948445896E0
1.139263321E1,-4.225037524E0,-3.638048117E0,4.982101386E0,7.477143198E0
1.140265121E1,-5.348216608E0,-3.158743079E0,4.022629430E0,7.400177447E0
1.141266821E1,-4.210969708E0,-2.235257227E0,3.858174151E0,6.133037464E0
1.142268521E1,-2.502746878E0,-2.257697087E0,3.258740991E0,4.688318560E0
1.143270321E1,-1.197340489E0,-3.967592513E0,2.287323174E0,4.733630942E0
1.144272021E1,4.333812985E-1,-6.081322964E0,2.234244490E-1,6.100838207E0
1.145273821E1,2.373012366E0,-7.131080607E0,-3.224494434E0,8.178072063E0
1.146275521E1,4.122433508E0,-6.748683228E0,-5.461716326E0,9.610906751E0
1.147277321E1,5.456915177E0,-6.087193569E0,-5.805140843E0,1.002654023E1
1.148279021E1,5.952109439E0,-6.093106858E0,-5.496762198E0,1.013745296E1
1.149280821E1,5.743788348E0,-6.084095714E0,-4.292053340E0,9.403672002E0
1.150282521E1,5.379636621E0,-5.589903665E0,-1.597755039E0,7.920879643E0
1.151284321E1,4.744454169E0,-5.251090847E0,9.620055538E-1,7.142076388E0
1.152286021E1,4.123526352E0,-4.809261784E0,7.968474394E-1,6.384938083E0
1.153287821E1,3.888671181E0,-3.853303421E0,-6.370683248E-1,5.511403348E0
1.154289521E1,2.918148866E0,-3.050045094E0,-2.864427572E0,5.101305048E0
1.155291321E1,9.368670581E-1,-2.423391976E0,-5.845614100E0,6.397011237E0
1.156293021E1,8.136648356E-1,-1.789837389E0,-4.561666115E0,4.967329875E0
1.157294821E1,2.068720924E0,-8.986299223E-1,-2.220864891E0,3.165340876E0
1.158296521E1,1.403203703E0,6.205182195E-2,-2.405159188E0,2.785250757E0
1.159298321E1,1.377225254E0,8.160157818E-1,-2.853922464E0,3.272232356E0
1.160300021E1,1.764074849E0,1.472027770E0,-3.851535223E0,4.484768600E0
1.161301721E1,2.079498220E0,2.211830358E0,-4.370905382E0,5.321777921E0
1.162303521E1,2.464647591E0,3.044328271E0,-4.611801896E0,6.050713933E0
1.163305221E1,3.074819162E0,3.858078257E0,-4.668603795E0,6.792285485E0
1.164307021E1,4.446148522E0,4.853922232E0,-5.252669595E0,8.421361861E0
1.165308721E1,4.998622109E0,6.125506865E0,-5.774489154E0,9.790443418E0
1.166310521E1,5.568553142E0,6.698191937E0,-5.939981144E0,1.054314637E1
1.167312221E1,5.621745263E0,6.999550415E0,-6.006813650E0,1.080183022E1
1.168314021E1,5.567943862E0,7.481249887E0,-5.931367611E0,1.105224957E1
1.169315721E1,5.770911242E0,8.031070007E0,-5.704637146E0,1.141684663E1
1.170317521E1,5.545277715E0,8.687077902E0,-5.310103287E0,1.159364586E1
1.171319221E1,5.259616088E0,9.280822890E0,-4.466098638E0,1.156474262E1
1.172321021E1,4.989409820E0,9.993095033E0,-3.329046158E0,1.165498636E1
1.173322721E1,4.680023115E0,1.048946517E1,-2.178937723E0,1.169099078E1
1.174324521E1,4.456638135E0,1.096968997E1,-1.068165555E0,1.188851123E1
1.175326221E1,4.391153705E0,1.116619150E1,4.911193371E-1,1.200863280E1
1.176328021E1,3.960740453E0,1.004134626E1,4.474467465E0,1.168490302E1
1.177329721E1,2.919639906E0,6.255114493E0,1.143200827E1,1.335445871E1
1.178331454E1,1.984369430E0,-5.657824337E-1,1.501172514E1,1.515287839E1
1.179333254E1,-7.327140087E-1,-9.939943843E0,1.137425298E1,1.512325971E1
1.180334954E1,-8.541792719E0,-2.335112468E1,8.136599970E0,2.616183300E1
1.181336754E1,-1.401642847E1,-3.353297251E1,1.948150753E0,3.639664550E1
1.182338454E1,-1.293625478E1,-2.923020532E1,1.815802535E0,3.201638221E1
1.183340254E1,-9.082926216E0,-1.270757368E1,4.084838542E0,1.614521240E1
1.184341954E1,-2.789942231E0,-1.528583794E0,2.850784848E0,4.271688228E0
1.185343754E1,5.047497815E-1,3.737841377E0,1.142895456E0,3.941121734E0
1.186345454E1,4.727827027E0,7.286106666E0,6.356607538E-1,8.708832490E0
1.187347254E1,9.004472369E0,8.191968425E0,1.485162078E0,1.226354662E1
1.188348954E1,1.135289544E1,6.359348128E0,5.026225644E-1,1.302237202E1
1.189350754E1,1.001794453E1,2.565277002E0,-5.502703553E0,1.171407722E1
1.190352454E1,5.743801796E0,-1.292624084E0,-1.292438610E1,1.420217913E1
1.191354254E1,6.489943936E0,-3.781900147E0,-1.187893669E1,1.405458209E1
1.192355954E1,8.347340639E0,-3.955016906E0,-6.206742817E0,1.112851791E1
1.193357754E1,7.088234550E0,-1.873688216E0,1.205452039E0,7.430133995E0
1.194359454E1,4.942589995E0,1.556623532E0,3.044204310E0,6.009946136E0
1.195361254E1,3.948014573E0,2.382915210E0,8.429537581E-1,4.687821990E0
1.196362954E1,2.817350177E0,1.666609073E0,-2.892745637E0,4.368412199E0
1.197364754E1,1.522049823E0,1.077258852E0,-6.642945689E0,6.899699249E0
1.198366454E1,1.499710097E0,5.297729409E-1,-7.132030780E0,7.307232909E0
1.199368154E1,1.796288037E0,-1.058990396E0,-6.318627534E0,6.653808329E0
1.200369954E1,1.794418682E0,-2.714539461E0,-5.180850000E0,6.117995555E0
1.201371654E1,1.324679105E0,-3.472099459E0,-3.513642756E0,5.114287321E0
1.202373454E1,5.268044557E-1,-3.146921763E0,-2.317833946E0,3.943728403E0
1.203375154E1,-6.298448208E-1,-2.254942464E0,-1.440779665E0,2.749057303E0
1.204376954E1,-2.021890574E0,-1.278585504E0,-4.694817156E-1,2.437875195E0
1.205378654E1,-2.588354793E0,-2.531312281E-1,-8.870460033E-2,2.602215299E0
1.206380454E1,-2.405439270E0,4.010657841E-1,7.668040434E-2,2.439850759E0
1.207382154E1,-2.004570098E0,6.435012853E-1,2.176906693E-1,2.116550120E0
1.208383954E1,-1.850185040E0,8.717754149E-1,2.845167428E-1,2.064976231E0
1.209385654E1,-1.684713222E0,1.192890465E0,-9.037105680E-2,2.066255849E0
1.210387454E1,-1.571425466E0,1.628379393E0,-9.981372535E-1,2.473312640E0
1.211389154E1,-1.523270136E0,1.919619264E0,-1.550586866E0,2.899932699E0
1.212390954E1,-1.509637061E0,2.136345727E0,-2.089504852E0,3.347985611E0
1.213392654E1,-1.628962652E0,2.132939724E0,-2.036733731E0,3.369159462E0
1.214394454E1,-1.706470858E0,1.923475503E0,-1.497913978E0,2.975827126E0
1.215396154E1,-1.457325969E0,1.605717924E0,-6.690676510E-1,2.269312793E0
1.216397954E1,-8.876301402E-1,1.446539757E0,1.022946990E-1,1.700243729E0
1.217399654E1,-1.613088924E-1,1.428576525E0,8.408820896E-1,1.665513175E0
1.218401454E1,2.757764710E-1,1.325552679E0,1.352153417E0,1.913494559E0
1.219403154E1,4.784289788E-1,1.215577662E0,1.799223486E0,2.223449683E0
1.220404854E1,3.792977697E-1,1.015574235E0,2.346507668E0,2.584831921E0
1.221406654E1,2.086842030E-1,7.393044055E-1,2.731497556E0,2.837463480E0
1.222408354E1,-9.262165010E-2,3.719630224E-1,3.199646691E0,3.222526060E0
1.223410154E1,-6.546561648E-1,-2.851482421E-1,3.816174771E0,3.882405710E0
1.224411854E1,-1.738391247E0,-1.357463273E0,4.502090296E0,5.013334988E0
1.225413654E1,-2.642692384E0,-2.102552914E0,4.748088799E0,5.826568375E0
1.226415354E1,-3.226286313E0,-2.144126033E0,4.434750253E0,5.888396184E0
1.227417154E1,-3.727055018E0,-1.569235391E0,3.540952177E0,5.375107547E0
1.228418854E1,-4.157670291E0,-6.946714389E-1,2.437731980E0,4.869427878E0
1.229420654E1,-4.401485150E0,-4.908182055E-1,1.421798141E0,4.651395919E0
1.230422354E1,-4.462606096E0,-8.508967620E-1,6.846189058E-1,4.594298805E0
1.231424154E1,-4.486170082E0,-1.421744639E0,3.430409396E-1,4.718554536E0
1.232425854E1,-4.606615708E0,-1.779749773E0,-1.078054073E-1,4.939639617E0
1.233427654E1,-4.949472753E0,-2.027340179E0,1.946785136E-1,5.352129339E0
1.234429354E1,-5.169311689E0,-2.268958240E0,8.593442345E-1,5.710378914E0
1.235431154E1,-5.102141799E0,-2.821674485E0,1.522707050E0,6.025971673E0
1.236432854E1,-4.739538415E0,-3.648988842E0,2.721136290E0,6.571371749E0
1.237434654E1,-4.407738455E0,-4.915664152E0,4.481456349E0,7.979684415E0
1.238436354E1,-4.283549442E0,-5.823885262E0,5.860695239E0,9.306674167E0
1.239438154E1,-3.730719176E0,-5.531940801E0,7.222698290E0,9.833005908E0
1.240439854E1,-3.470380670E0,-4.560670334E0,7.818977462E0,9.694310932E0
1.241441654E1,-4.426780205E0,-4.058094547E0,7.195381268E0,9.372194297E0
1.242443354E1,-5.588604414E0,-3.558296188E0,6.618137122E0,9.364491979E0
1.243445054E1,-5.421278152E0,-2.739388373E0,5.814349623E0,8.408398599E0
1.244446854E1,-4.106796299E0,-2.564794022E0,4.141771127E0,6.371672644E0
1.245448554E1,-1.958165133E0,-3.309607674E0,2.023497974E0,4.345394999E0
1.246450354E1,4.692829102E-3,-4.753686923E0,-9.037575284E-2,4.754548260E0
1.247452054E1,1.430800660E0,-6.499283693E0,-2.856281231E0,7.241976355E0
1.248453854E1,3.084770538E0,-6.935160291E0,-5.131209478E0,9.161963122E0
1.249455554E1,4.766753111E0,-6.057338271E0,-5.649821838E0,9.556870249E0
1.250457354E1,5.710907700E0,-5.628050315E0,-5.307144011E0,9.615362430E0
1.251459054E1,5.874359012E0,-5.639992669E0,-4.575057408E0,9.340704545E0
1.252460854E1,5.752758561E0,-5.086585867E0,-2.861012213E0,8.194692046E0
1.253462554E1,5.327522142E0,-4.665724919E0,-2.343816926E-1,7.085648592E0
1.254464354E1,4.675844403E0,-4.467413092E0,1.049291473E0,6.551512284E0
1.255466054E1,4.249252306E0,-4.019029300E0,3.722891508E-1,5.860660448E0
1.256467854E1,3.486300884E0,-3.538208663E0,-1.529231811E0,5.197284323E0
1.257469554E1,2.092117681E0,-2.968034971E0,-3.911981984E0,5.337582882E0
1.258471354E1,8.320136907E-1,-2.448715682E0,-5.883307006E0,6.426644272E0
1.259473054E1,1.664148565E0,-1.709861512E0,-3.823912976E0,4.507252742E0
1.260474854E1,1.994461578E0,-6.706522465E-1,-2.317702676E0,3.130398875E0
1.261476554E1,1.217927512E0,2.001256335E-1,-2.420537365E0,2.717057016E0
1.262478354E1,1.397299915E0,8.419867748E-1,-3.268659623E0,3.653152682E0
1.263480054E1,1.617872823E0,1.577351326E0,-4.173112203E0,4.745567947E0
1.264481854E1,1.962672459E0,2.499253752E0,-4.297802323E0,5.345040439E0
1.265483554E1,2.628142172E0,3.243261073E0,-4.526039615E0,6.157183468E0
1.266485354E1,3.589452784E0,4.219342629E0,-5.013568177E0,7.471471700E0
1.267487054E1,4.444671223E0,5.248886447E0,-5.375601457E0,8.729433100E0
1.268488854E1,5.282271709E0,6.151265019E0,-5.839729462E0,9.992141709E0
1.269490554E1,5.824005130E0,6.750332143E0,-6.047536583E0,1.077305521E1
1.270492354E1,5.945538923E0,6.929834647E0,-6.025041175E0,1.093952295E1
1.271494054E1,5.840335234E0,6.998702568E0,-5.896659708E0,1.085642432E1
1.272495754E1,5.958703344E0,7.392489738E0,-5.595449749E0,1.102107563E1
1.273497554E1,5.705607784E0,8.211757742E0,-5.048813438E0,1.120167142E1
1.274499254E1,5.454191544E0,9.006051117E0,-3.985866816E0,1.125807694E1
1.275501054E1,5.097128981E0,9.562926487E0,-2.590063350E0,1.114175547E1
1.276502754E1,4.862497174E0,1.001116527E1,-1.111158085E0,1.118489969E1
1.277504554E1,4.867545660E0,1.043196365E1,5.122690085E-1,1.152307623E1
1.278506258E1,4.489789801E0,9.969196293E0,3.493127216E0,1.147802356E1
1.279508058E1,2.920929217E0,7.413460193E0,9.484693666E0,1.238751926E1
1.280509758E1,1.307411838E0,1.669027482E0,1.385871503E1,1.401994867E1
1.281511558E1,6.088501006E-2,-5.274491989E0,9.916174911E0,1.123185192E1
1.282513258E1,-3.741677150E0,-1.514742499E1,9.037315010E0,1.803102033E1
1.283515058E1,-1.053652473E1,-2.678308944E1,4.424209769E0,2.911916663E1
1.284516758E1,-1.210720380E1,-2.966579716E1,5.667839156E-1,3.204629696E1
1.285518558E1,-9.904341316E0,-1.806114049E1,3.578863769E0,2.090715281E1
1.286520258E1,-4.733760197E0,-4.557207028E0,3.641341268E0,7.512388950E0
1.287522058E1,-5.062595326E-1,7.985016167E-1,2.457443236E0,2.633045918E0
1.288523758E1,2.425451219E0,4.283440976E0,1.993012930E0,5.310629035E0
1.289525558E1,6.782916337E0,6.185740787E0,2.098482082E0,9.416738829E0
1.290527258E1,9.733020236E0,5.616641813E0,1.789236880E0,1.137891545E1
1.291529058E1,9.834153678E0,2.519590368E0,-3.775020897E-2,1.015186383E1
1.292530758E1,5.202442598E0,-1.433684068E0,-6.963478357E0,8.809704298E0
1.293532558E1,1.168751551E0,-4.032429948E0,-1.457658354E1,1.516915486E1
1.294534258E1,4.267397386E0,-3.985266307E0,-1.135910167E1,1.277193090E1
1.295536058E1,5.948651980E0,-1.238787600E0,-7.388007848E0,9.565757422E0
1.296537758E1,5.994714591E0,1.882806364E0,8.274592213E-1,6.337685034E0
1.297539558E1,6.213358356E0,4.426814704E0,4.474041495E0,8.844182144E0
1.298541258E1,6.225056881E0,4.774203633E0,1.547742196E0,7.996240329E0
1.299543058E1,4.820326470E0,3.902442251E0,-3.010891553E0,6.894205592E0
1.300544758E1,3.138786532E0,3.009099382E0,-5.948309333E0,7.368109928E0
1.301546558E1,2.861463034E0,1.819814894E0,-6.384056123E0,7.228822139E0
1.302548258E1,3.094252091E0,-8.455079681E-1,-5.538523012E0,6.400352871E0
1.303550058E1,2.719175134E0,-2.983887357E0,-4.519829872E0,6.060227655E0
1.304551758E1,1.902566737E0,-4.187688727E0,-3.426758394E0,5.735779821E0
1.305553558E1,7.665470948E-1,-4.584749753E0,-2.522574202E0,5.288752721E0
1.306555258E1,-8.957829130E-1,-4.037399497E0,-1.979286007E0,4.584822224E0
1.307557058E1,-2.533711101E0,-2.958254918E0,-1.304052467E0,4.107495215E0
1.308558758E1,-3.044936089E0,-1.589313560E0,-8.451495337E-1,3.537206682E0
1.309560458E1,-2.721236277E0,-3.559714723E-1,-1.470592096E-1,2.748357505E0
1.310562258E1,-2.518986058E0,2.256452215E-1,3.195555979E-1,2.549180713E0
1.311564058E1,-2.530630203E0,5.634306836E-1,4.509770322E-1,2.631524966E0
1.312565758E1,-2.416006942E0,9.428243476E-1,1.727197337E-1,2.599199762E0
1.313567458E1,-2.293388637E0,1.238070146E0,-8.927891386E-1,2.754908633E0
1.314569258E1,-1.932839526E0,1.502264891E0,-1.768683332E0,3.020084298E0
1.315570958E1,-1.735545699E0,1.803905790E0,-2.166904446E0,3.310841260E0
1.316572758E1,-1.690272024E0,1.769239402E0,-1.964721762E0,3.138050220E0
1.317574458E1,-1.493989035E0,1.738610517E0,-9.244436252E-1,2.471713127E0
1.318576258E1,-1.326584566E0,1.633723748E0,2.200564528E-1,2.115964257E0
1.319577958E1,-9.461889817E-1,1.558013415E0,7.449867296E-1,1.969183744E0
1.320579758E1,-4.341823670E-1,1.508311497E0,1.036430523E0,1.880879084E0
1.321581458E1,3.432213262E-2,1.301049922E0,1.118546480E0,1.716116294E0
1.322583258E1,1.732534383E-1,1.007022098E0,1.121983766E0,1.517549943E0
1.323584958E1,1.806092356E-1,6.843201131E-1,1.518765003E0,1.675577765E0
1.324586758E1,1.400413996E-1,3.810817552E-1,1.960216044E0,2.001819631E0
1.325588458E1,7.038337335E-2,1.504675698E-1,2.493719362E0,2.499245999E0
1.326590258E1,-9.935106441E-2,-5.303541541E-2,3.417230941E0,3.419086237E0
1.327591958E1,-7.749830921E-1,-5.573425627E-1,4.527092113E0,4.626639442E0
1.328593758E1,-1.789440217E0,-9.725235254E-1,4.976034315E0,5.376691901E0
1.329595458E1,-2.683695399E0,-1.016971720E0,4.711724087E0,5.516955351E0
1.330597258E1,-3.359428291E0,-7.601602542E-1,3.912571968E0,5.212659730E0
1.331598958E1,-3.719283776E0,-3.865091407E-1,2.602880739E0,4.556034379E0
1.332600758E1,-3.935571698E0,-2.968537831E-1,1.346442734E0,4.170102492E0
1.333602458E1,-4.029329755E0,-6.841248161E-1,7.310564692E-1,4.151863268E0
1.334604258E1,-4.200730941E0,-1.425224317E0,3.426341195E-1,4.449135077E0
1.335605958E1,-4.295147394E0,-2.070430065E0,7.706995681E-2,4.768743186E0
1.336607758E1,-4.349260159E0,-2.370153077E0,1.365677150E-1,4.955031814E0
1.337609458E1,-4.394944163E0,-2.479584888E0,2.900599033E-1,5.054503948E0
1.338611258E1,-4.522871886E0,-2.756722444E0,2.264300640E-1,5.301618555E0
1.339612958E1,-4.547167067E0,-3.164215488E0,-1.788695428E-1,5.542651198E0
1.340614758E1,-3.890838744E0,-3.712050478E0,1.280621358E0,5.527923294E0
1.341616458E1,-3.104533835E0,-4.802634550E0,6.208532649E0,8.440930435E0
1.342618258E1,-3.202373832E0,-5.345780073E0,8.433877677E0,1.048631753E1
1.343619958E1,-2.806933362E0,-4.306147469E0,9.685451968E0,1.096493323E1
1.344621758E1,-2.438529248E0,-3.639064947E0,9.261112511E0,1.024487304E1
1.345623458E1,-3.128618224E0,-3.398402322E0,6.771318970E0,8.196837861E0
1.346625258E1,-4.073400511E0,-3.036802320E0,5.121661559E0,7.214303652E0
1.347626958E1,-3.853460126E0,-2.299584786E0,4.392442431E0,6.279394528E0
1.348628758E1,-3.234451073E0,-2.267140925E0,3.305435686E0,5.150486073E0
1.349630458E1,-2.093764549E0,-3.158379382E0,2.185200384E0,4.374278343E0
1.350632258E1,-3.573870832E-1,-4.227631057E0,3.670460987E-1,4.258557587E0
1.351633958E1,9.585776237E-1,-5.162128385E0,-2.604214196E0,5.860748425E0
1.352635758E1,2.396750307E0,-5.440479239E0,-4.487678372E0,7.448656493E0
1.353637458E1,3.646407296E0,-5.339828777E0,-4.999113860E0,8.173199919E0
1.354639258E1,4.506032197E0,-5.724043470E0,-4.981093910E0,8.824981380E0
1.355640958E1,4.817245572E0,-5.873323470E0,-4.597742851E0,8.879246748E0
1.356642758E1,4.829881405E0,-5.467764686E0,-3.680285479E0,8.171212043E0
1.357644458E1,4.409523025E0,-4.995718966E0,-1.966354889E0,6.947492559E0
1.358646258E1,3.578117080E0,-4.614941266E0,4.079367010E-1,5.853803642E0
1.359647958E1,3.486793804E0,-4.354953008E0,7.824100792E-1,5.633428110E0
1.360649758E1,3.886532855E0,-3.541482520E0,-5.891930772E-1,5.290971985E0
1.361651458E1,2.128112848E0,-3.038057717E0,-3.531848647E0,5.121778387E0
1.362653258E1,2.212184699E0,-2.178068535E0,-4.320790066E0,5.320429539E0
1.363654958E1,3.347170773E0,-7.886408722E-1,-3.059262060E0,4.602672154E0
1.364656758E1,1.915563343E0,2.059237325E-1,-2.726748447E0,3.338704030E0
1.365658458E1,1.121044119E0,6.772666168E-1,-2.943287800E0,3.221548239E0
1.366660258E1,1.086484881E0,1.299060114E0,-3.301916832E0,3.710884172E0
1.367661958E1,1.087838366E0,1.864524459E0,-3.832396116E0,4.398534274E0
1.368663758E1,1.526940288E0,2.467251356E0,-4.103181550E0,5.025432790E0
1.369665458E1,2.544248076E0,3.128987768E0,-4.293683544E0,5.890626545E0
1.370667158E1,3.422504545E0,3.942490416E0,-4.525478282E0,6.909176631E0
1.371668958E1,4.250854443E0,4.780611597E0,-4.924815629E0,8.073278127E0
1.372670658E1,4.964954426E0,5.451659700E0,-5.301827137E0,9.081890603E0
1.373672458E1,5.475694680E0,6.077770781E0,-5.531920921E0,9.875458418E0
1.374674158E1,5.540239170E0,6.627023136E0,-5.566430018E0,1.027603177E1
1.375675958E1,5.350567188E0,6.973574159E0,-5.535828615E0,1.038771891E1
1.376677658E1,5.178943807E0,7.098282405E0,-5.283741699E0,1.025304825E1
1.377679458E1,4.713658639E0,7.707738277E0,-4.919108162E0,1.028714889E1
1.378681167E1,4.429218787E0,8.511021162E0,-4.304552056E0,1.051592263E1
1.379682967E1,4.272654617E0,9.175784678E0,-3.311378211E0,1.064968674E1
1.380684667E1,4.065690665E0,9.635799167E0,-2.062565853E0,1.065986135E1
1.381686467E1,3.905511455E0,9.874202428E0,-8.514081010E-1,1.065259541E1
1.382688167E1,3.826696250E0,9.809889488E0,6.004640239E-1,1.054694709E1
1.383689967E1,3.390534893E0,8.828106312E0,3.495128425E0,1.008201917E1
1.384691667E1,2.799633991E0,6.379953716E0,8.997157502E0,1.137939379E1
1.385693467E1,2.128275693E0,1.410136161E0,1.330322019E1,1.354598497E1
1.386695167E1,9.809134758E-1,-6.942281030E0,1.213996926E1,1.401914087E1
1.387696967E1,-5.424911612E0,-1.891054095E1,9.889133878E0,2.201892808E1
1.388698667E1,-1.327865837E1,-2.996359585E1,3.055127494E0,3.291616090E1
1.389700467E1,-1.346196624E1,-3.002657504E1,-3.525990906E-1,3.290811556E1
1.390702167E1,-1.044913926E1,-1.643061751E1,3.186903269E0,1.973084021E1
1.391703967E1,-4.172930354E0,-3.634420504E0,3.156589549E0,6.370747030E0
1.392705667E1,-6.671830203E-1,2.045334401E0,1.623155783E0,2.695025174E0
1.393707467E1,1.979248877E0,5.475541483E0,5.002379237E-1,5.843733278E0
1.394709167E1,6.110474258E0,7.305051645E0,1.081712384E0,9.584976624E0
1.395710967E1,1.031718982E1,6.207686557E0,5.008887188E-1,1.205116873E1
1.396712667E1,1.229583030E1,2.564187666E0,-3.438646368E0,1.302254929E1
1.397714467E1,8.904894871E0,-1.238039156E0,-7.622435587E0,1.178691723E1
1.398716167E1,5.514261745E0,-2.612021399E0,-1.275940340E1,1.414327096E1
1.399717967E1,6.122363986E0,-2.586924564E0,-1.054680063E1,1.246637569E1
1.400719667E1,7.421199567E0,-1.358174880E0,-1.620675101E0,7.716568525E0
1.401721467E1,5.795370730E0,1.807583688E0,4.855643653E0,7.773735008E0
1.402723167E1,4.643536782E0,3.153034442E0,7.151990250E0,9.091480879E0
1.403724967E1,3.965225852E0,2.117046992E0,8.378614180E-1,4.572408095E0
1.404726667E1,2.540981529E0,1.496439310E0,-3.742851271E0,4.764961005E0
1.405728467E1,1.367820739E0,9.964707971E-1,-5.482594979E0,5.737833679E0
1.406730167E1,1.249435380E0,1.152433580E-1,-6.500744328E0,6.620728556E0
1.407731967E1,1.250129298E0,-1.683325093E0,-6.138884125E0,6.487087554E0
1.408733667E1,1.080913216E0,-3.348087031E0,-4.895842091E0,6.028874682E0
1.409735467E1,5.247326410E-1,-3.841804871E0,-3.737646080E0,5.385611129E0
1.410737167E1,-1.000052582E-1,-3.202989544E0,-2.956860357E0,4.360294284E0
1.411738967E1,-9.312398440E-1,-2.066321227E0,-2.140561570E0,3.117514217E0
1.412740667E1,-2.054420681E0,-8.128389895E-1,-1.217045313E0,2.522409731E0
1.413742467E1,-2.985840327E0,4.858451486E-2,-5.103239322E-1,3.029526932E0
1.414744167E1,-3.659882205E0,3.560732138E-1,4.311713433E-1,3.702355279E0
1.415745967E1,-3.746049113E0,6.075935340E-1,1.351938824E0,4.028621656E0
1.416747667E1,-3.591309568E0,8.271459568E-1,1.668325816E0,4.045365975E0
1.417749367E1,-3.418699762E0,8.879049593E-1,8.658545244E-1,3.636700061E0
1.418751167E1,-3.050705537E0,8.600020462E-1,-3.316026163E-1,3.186905723E0
1.419752867E1,-2.530717034E0,9.616822028E-1,-1.697438518E0,3.195412163E0
1.420754667E1,-2.385800957E0,1.348304780E0,-2.848793871E0,3.952922780E0
1.421756367E1,-2.315150951E0,1.733449180E0,-3.052874562E0,4.205331506E0
1.422758167E1,-2.050226181E0,1.961227466E0,-2.272977616E0,3.635418519E0
1.423759867E1,-1.293686523E0,2.057239916E0,-8.967196369E-1,2.590360400E0
1.424761667E1,-4.952835779E-1,1.903614265E0,4.567108849E-1,2.019316203E0
1.425763367E1,1.782604091E-1,1.735702697E0,1.378835431E0,2.223876744E0
1.426765167E1,7.563347134E-1,1.639181539E0,2.035360659E0,2.720597605E0
1.427766867E1,1.203767456E0,1.375443462E0,2.034121195E0,2.734693738E0
1.428768667E1,1.374169061E0,1.005365582E0,1.961657967E0,2.597537784E0
1.429770367E1,1.339139561E0,6.330587429E-1,1.816400266E0,2.343793520E0
1.430772167E1,1.163592699E0,2.318999881E-1,1.860592353E0,2.206701039E0
1.431773867E1,8.870500964E-1,-3.663274759E-1,2.604318277E0,2.775522902E0
1.432775667E1,3.903396517E-2,-1.231188558E0,3.964357249E0,4.151322357E0
1.433777367E1,-1.665898637E0,-1.786069443E0,5.131776073E0,5.683343029E0
1.434779167E1,-3.134475964E0,-1.722963953E0,5.235198700E0,6.340414007E0
1.435780867E1,-4.080784083E0,-1.285047846E0,4.144013534E0,5.956256784E0
1.436782667E1,-4.635191343E0,-9.451035923E-1,2.576246379E0,5.386581940E0
1.437784367E1,-4.848594834E0,-1.144671986E0,1.293025203E0,5.146946667E0
1.438786167E1,-4.803813056E0,-1.794977676E0,5.940959676E-1,5.162510509E0
1.439787867E1,-4.798173709E0,-2.282826666E0,3.343437910E-2,5.313650947E0
1.440789667E1,-5.024397220E0,-2.398751809E0,-3.783322482E-1,5.580476051E0
1.441791367E1,-4.929690453E0,-2.387409380E0,-8.844252813E-1,5.548313220E0
1.442793167E1,-4.583664217E0,-2.353338239E0,-5.107658355E-1,5.177746640E0
1.443794867E1,-4.242411356E0,-2.655325878E0,1.797889882E0,5.318008806E0
1.444796667E1,-4.520054112E0,-3.594636633E0,3.979147196E0,7.013267007E0
1.445798367E1,-4.622136850E0,-4.760560910E0,5.569108043E0,8.662681665E0
1.446800167E1,-3.948850725E0,-5.323522646E0,6.976304809E0,9.623000790E0
1.447801867E1,-3.180839122E0,-5.016349112E0,7.756746715E0,9.769780732E0
1.448803667E1,-3.494693392E0,-4.378040155E0,7.196922594E0,9.120077430E0
1.449805367E1,-4.971190481E0,-4.113998607E0,5.797740022E0,8.674762746E0
1.450807167E1,-5.452426270E0,-3.151992468E0,5.024586085E0,8.056703673E0
1.451808867E1,-4.709976355E0,-1.987958597E0,4.046227623E0,6.519801732E0
1.452810667E1,-3.592887146E0,-1.710041022E0,3.020492681E0,4.995643540E0
1.453812367E1,-1.909663356E0,-2.662509767E0,1.664765446E0,3.675216508E0
1.454814167E1,1.195200115E-1,-4.187386426E0,-1.238674164E-2,4.189110113E0
1.455815867E1,2.206191449E0,-5.398683341E0,-2.180557694E0,6.226386945E0
1.456817667E1,3.739813935E0,-5.717477632E0,-4.597573282E0,8.234891548E0
1.457819367E1,5.089717051E0,-5.206508167E0,-5.464952175E0,9.103771154E0
1.458821167E1,5.656841421E0,-5.192212894E0,-5.247621109E0,9.300347139E0
1.459822867E1,5.563799940E0,-5.082802134E0,-4.705439208E0,8.884362973E0
1.460824667E1,4.911481639E0,-4.657147053E0,-3.442448228E0,7.593557820E0
1.461826367E1,3.801899963E0,-4.389988940E0,-9.701513100E-1,5.887923215E0
1.462828167E1,3.058215116E0,-4.320655580E0,1.344305284E0,5.461492565E0
1.463829867E1,2.945450977E0,-4.059243525E0,1.245145862E0,5.167545614E0
1.464831667E1,2.653703860E0,-3.270577510E0,-8.661767060E-1,4.299893430E0
1.465833367E1,1.673492708E0,-2.612728912E0,-3.727326913E0,4.849731552E0
1.466835167E1,1.216553270E0,-2.093158777E0,-4.637954738E0,5.231819920E0
1.467836867E1,1.999011589E0,-1.233710462E0,-2.915610005E0,3.744178219E0
1.468838667E1,2.305804908E0,-1.730267125E-1,-1.996067516E0,3.054662018E0
1.469840367E1,1.785887302E0,5.861652428E-1,-2.518451330E0,3.142543596E0
1.470842167E1,1.644582173E0,1.166977360E0,-3.632105591E0,4.154356474E0
1.471843867E1,1.814236797E0,1.651924376E0,-4.214551420E0,4.876756399E0
1.472845567E1,2.141268644E0,2.402278849E0,-4.127365927E0,5.233653081E0
1.473847367E1,2.313225901E0,3.068611173E0,-3.929845812E0,5.496460380E0
1.474849067E1,3.636139001E0,3.461196156E0,-4.244788542E0,6.574162717E0
1.475850867E1,4.374630058E0,4.404127507E0,-4.826027505E0,7.862841009E0
1.476852567E1,4.853433990E0,5.486082258E0,-5.150750288E0,8.954504373E0
1.477854367E1,5.680001072E0,6.130310937E0,-5.358045192E0,9.927324546E0
1.478856046E1,5.547176891E0,6.650326629E0,-5.292434170E0,1.014927954E1
1.479857846E1,5.696730541E0,6.894639671E0,-5.166093382E0,1.032847113E1
1.480859546E1,5.314084071E0,7.660465878E0,-4.805644989E0,1.048887271E1
1.481861346E1,4.884961007E0,8.506406540E0,-4.151318168E0,1.065153692E1
1.482863046E1,4.458929366E0,9.264657093E0,-3.320495190E0,1.080470316E1
1.483864846E1,4.061186847E0,9.723889225E0,-2.298221800E0,1.078559612E1
1.484866546E1,3.863850043E0,9.922741334E0,-1.033512323E0,1.069851768E1
1.485868346E1,3.647694853E0,1.004195788E1,3.892476842E-1,1.069102939E1
1.486870046E1,3.532754381E0,9.559922773E0,2.577225203E0,1.051259086E1
1.487871846E1,2.940372963E0,7.888035418E0,6.991029267E0,1.094264073E1
1.488873546E1,1.901949124E0,3.391734157E0,1.299070288E1,1.356022243E1
1.489875346E1,3.694072044E-1,-3.747802693E0,1.327437470E1,1.379824302E1
1.490877046E1,-4.029781160E0,-1.447242943E1,1.045427078E1,1.830251697E1
1.491878846E1,-1.117095932E1,-2.664046181E1,4.959106625E0,2.931036124E1
1.492880546E1,-1.339575354E1,-3.102305285E1,7.815821135E-1,3.380069366E1
1.493882346E1,-1.173446719E1,-2.045064844E1,3.164977380E0,2.378957384E1
1.494884046E1,-6.213340230E0,-5.998910553E0,4.219300529E0,9.612232914E0
1.495885846E1,-1.765376732E0,3.651901925E-1,2.158283896E0,2.812135889E0
1.496887546E1,1.780176473E0,4.627420394E0,1.113438499E0,5.081514840E0
1.497889346E1,6.055273619E0,6.612534320E0,1.208709961E0,9.047260829E0
1.498891046E1,8.924380133E0,5.805997460E0,6.858260635E-1,1.066885770E1
1.499892846E1,9.916944405E0,3.095825284E0,-1.652833764E0,1.051959029E1
1.500894546E1,6.425812259E0,-9.859107256E-2,-6.960306242E0,9.473470662E0
1.501896346E1,1.428318956E0,-1.695355155E0,-1.413731614E1,1.431006750E1
1.502898046E1,3.436151361E0,-1.898907257E0,-1.125472654E1,1.191980932E1
1.503899846E1,6.364124719E0,-2.324969888E-1,-3.881784039E0,7.458175756E0
1.504901546E1,7.330618011E0,1.770074970E0,5.660298294E0,9.429215376E0
1.505903346E1,8.532168202E0,3.555185469E0,8.212838892E0,1.236478712E1
1.506905046E1,8.050678060E0,3.883213098E0,1.075105469E0,9.002700315E0
1.507906846E1,4.206075589E0,3.445156074E0,-3.901623641E0,6.691998152E0
1.508908546E1,1.805483807E0,3.252700818E0,-7.046242771E0,7.968021810E0
1.509910346E1,2.305291376E0,1.933753154E0,-8.370354695E0,8.894751672E0
1.510912046E1,3.277578089E0,-1.209560877E0,-7.142884381E0,7.951500043E0
1.511913846E1,3.262421521E0,-4.163757243E0,-5.545954823E0,7.664064421E0
1.512915546E1,1.902464995E0,-5.197245008E0,-4.087984344E0,6.880577354E0
1.513917346E1,4.168791768E-1,-4.862828711E0,-2.743284373E0,5.598794556E0
1.514919046E1,-8.244177921E-1,-4.106279697E0,-1.198616644E0,4.356360810E0
1.515920846E1,-1.885782450E0,-3.001313814E0,1.755258491E-1,3.548925103E0
1.516922546E1,-2.527585558E0,-1.919947293E0,2.043993634E-1,3.180670599E0
1.517924246E1,-2.967779447E0,-1.024546788E0,-2.007589235E-1,3.146063431E0
1.518926046E1,-2.769110355E0,-2.761645800E-1,-1.741891390E-1,2.788293545E0
1.519927746E1,-2.413159933E0,4.771737278E-2,-1.371961445E-1,2.417527785E0
1.520929546E1,-2.186226570E0,3.398758417E-1,-3.032021052E-1,2.233166747E0
1.521931246E1,-1.992022412E0,6.242966902E-1,-7.068196142E-1,2.203972235E0
1.522933046E1,-2.005967583E0,1.038517540E0,-1.569485067E0,2.750583211E0
1.523934746E1,-1.866995054E0,1.433995725E0,-2.665121133E0,3.555964697E0
1.524936546E1,-1.800992707E0,1.714052796E0,-2.964245975E0,3.868889494E0
1.525938246E1,-1.763638939E0,2.083561742E0,-2.657004029E0,3.809372947E0
1.526940046E1,-1.365374410E0,2.328272980E0,-1.494851207E0,3.085398269E0
1.527941746E1,-7.353130960E-1,2.443613402E0,3.264610134E-2,2.552057518E0
1.528943546E1,3.310415760E-2,2.263534362E0,9.944558465E-1,2.472574797E0
1.529945246E1,6.943299615E-1,1.816997121E0,1.392060518E0,2.391945885E0
1.530947046E1,9.132112701E-1,1.461666504E0,1.591506851E0,2.345915141E0
1.531948746E1,9.073146455E-1,1.181062717E0,1.751943777E0,2.299442543E0
1.532950546E1,8.251678437E-1,1.029171351E0,1.868186424E0,2.286966584E0
1.533952246E1,6.282659264E-1,9.655039430E-1,2.083085633E0,2.380370075E0
1.534954046E1,1.654202159E-1,8.747557408E-1,2.675449655E0,2.819679469E0
1.535955746E1,-5.265489323E-1,6.800498915E-1,3.470171632E0,3.575166120E0
1.536957546E1,-1.627607560E0,1.224956596E-1,4.207934711E0,4.513405154E0
1.537959246E1,-2.927811097E0,-4.799067163E-1,4.397173998E0,5.304481827E0
1.538961046E1,-3.837563593E0,-6.395321953E-1,3.892488244E0,5.503395360E0
1.539962746E1,-4.432739980E0,-6.680970132E-1,2.861524429E0,5.318257178E0
1.540964546E1,-4.791036305E0,-9.410198969E-1,1.628709322E0,5.147061431E0
1.541966246E1,-4.933560140E0,-1.591728460E0,6.766235693E-1,5.227947456E0
1.542968046E1,-5.075929316E0,-2.448438524E0,-7.251570672E-2,5.636059630E0
1.543969746E1,-5.578422657E0,-3.072054598E0,-1.682078759E-1,6.370605363E0
1.544971546E1,-6.024939433E0,-3.171559006E0,4.863290057E-1,6.826067507E0
1.545973246E1,-6.284749936E0,-3.018229224E0,1.593927598E0,7.151810581E0
1.546975046E1,-6.658895724E0,-3.364937537E0,2.838527330E0,7.982539339E0
1.547976746E1,-6.065144888E0,-4.249732363E0,4.299990643E0,8.563651511E0
1.548978546E1,-5.198998003E0,-5.130796080E0,5.784069232E0,9.317194080E0
1.549980246E1,-4.458308392E0,-6.091284866E0,6.648432716E0,1.005892254E1
1.550981946E1,-4.347825545E0,-6.430670711E0,6.571932424E0,1.017090992E1
1.551983746E1,-4.765002747E0,-6.112933012E0,5.906621025E0,9.744812626E0
1.552985446E1,-5.510167524E0,-5.633585290E0,5.547212559E0,9.636949545E0
1.553987246E1,-5.259734201E0,-4.572541351E0,5.475816886E0,8.863267391E0
1.554988946E1,-3.370087180E0,-3.198566710E0,5.168749187E0,6.950128399E0
1.555990746E1,-1.377856900E0,-2.934074927E0,4.845468328E0,5.829738299E0
1.556992446E1,7.209840555E-1,-3.559590177E0,3.606956717E0,5.118655780E0
1.557994246E1,2.479890112E0,-5.128922047E0,2.894067875E-1,5.704336300E0
1.558995946E1,4.115289087E0,-6.537800472E0,-3.424132410E0,8.450036807E0
1.559997746E1,5.478026549E0,-6.443859106E0,-5.226799759E0,9.942410712E0
1.560999446E1,5.977667034E0,-5.701782535E0,-5.675944274E0,1.002293224E1
1.562001246E1,5.790725117E0,-4.955717579E0,-5.620924898E0,9.470292014E0
1.563002946E1,5.182502423E0,-4.342496685E0,-4.907420747E0,8.354542909E0
1.564004746E1,4.401169108E0,-4.095662323E0,-2.237456511E0,6.414900703E0
1.565006446E1,3.223840715E0,-4.324332309E0,1.586119080E0,5.622167964E0
1.566008246E1,2.642716357E0,-4.315627559E0,1.705769484E0,5.340247233E0
1.567009946E1,2.633461969E0,-3.419873883E0,4.632295802E-2,4.316573309E0
1.568011746E1,2.419359736E0,-2.411522713E0,-1.981793877E0,3.949208819E0
1.569013446E1,7.736472957E-1,-2.279163385E0,-4.856071084E0,5.419828618E0
1.570015246E1,2.085492054E-1,-2.313128107E0,-4.935713085E0,5.454843542E0
1.571016946E1,1.219713544E0,-1.476118482E0,-3.034037172E0,3.587758138E0
1.572018746E1,4.759207425E-1,-6.509237409E-1,-2.980702379E0,3.087845356E0
1.573020446E1,1.695857723E-1,-7.679616094E-2,-3.453934498E0,3.458947890E0
1.574022246E1,6.408308619E-1,6.628543997E-1,-3.936056725E0,4.042596033E0
1.575023946E1,1.154296649E0,1.532202635E0,-4.073391448E0,4.502506364E0
1.576025746E1,1.824620428E0,2.442305380E0,-4.196678821E0,5.187119470E0
1.577027446E1,2.818286024E0,3.393798809E0,-4.465118060E0,6.276773515E0
1.578029246E1,3.884557958E0,4.500879630E0,-4.890862894E0,7.698587392E0
1.579030933E1,4.525165456E0,5.817617632E0,-5.365395142E0,9.116428157E0
1.580032633E1,5.654192632E0,6.513294207E0,-5.738208350E0,1.035953333E1
1.581034433E1,5.623540943E0,7.059016013E0,-5.776658471E0,1.071558225E1
1.582036133E1,5.835885503E0,7.463191931E0,-5.633126283E0,1.102220056E1
1.583037933E1,5.509119118E0,8.045094554E0,-5.377187222E0,1.113499359E1
1.584039633E1,5.282957003E0,8.589553946E0,-4.995925958E0,1.125385924E1
1.585041433E1,4.877885292E0,9.108947495E0,-4.172874514E0,1.114358879E1
1.586043133E1,4.423902206E0,9.587565485E0,-3.013783586E0,1.098067458E1
1.587044933E1,4.145417743E0,1.010143458E1,-1.762141467E0,1.106022656E1
1.588046633E1,3.916222969E0,1.044843175E1,-6.020404333E-1,1.117447901E1
1.589048433E1,3.669356448E0,1.038501285E1,9.999808806E-1,1.105950407E1
1.590050133E1,3.194539733E0,9.080329467E0,4.842262007E0,1.077520156E1
1.591051933E1,2.764203372E0,5.568987590E0,1.139528074E1,1.298101946E1
1.592053633E1,1.354343491E0,-1.966822082E-1,1.338910877E1,1.345886933E1
1.593055433E1,-1.195275910E0,-8.416989164E0,1.113941360E1,1.401288430E1
1.594057133E1,-8.046094428E0,-2.003127912E1,8.105349526E0,2.305837092E1
1.595058933E1,-1.340609961E1,-2.850563941E1,2.753052732E0,3.162078879E1
1.596060633E1,-1.215889786E1,-2.430035933E1,1.330639610E0,2.720508891E1
1.597062433E1,-8.176789638E0,-9.821867509E0,3.336785240E0,1.320844828E1
1.598064133E1,-2.004532237E0,-7.200495243E-1,2.336275187E0,3.161455765E0
1.599065933E1,1.508603565E0,3.398673048E0,7.208900616E-1,3.787683419E0
1.600067633E1,5.005270393E0,6.133527490E0,6.541075498E-2,7.916891420E0
1.601069433E1,8.625053562E0,6.561011580E0,1.168434486E-2,1.083690723E1
1.602071133E1,1.018282899E1,4.543898765E0,-2.671971146E0,1.146631816E1
1.603072933E1,7.524297674E0,1.020938471E0,-9.732364179E0,1.234407888E1
1.604074633E1,5.379146039E0,-3.321687437E0,-1.408312766E1,1.543707563E1
1.605076433E1,7.108795114E0,-6.285021247E0,-8.656933751E0,1.284441365E1
1.606078133E1,6.520304434E0,-6.064112855E0,-1.162251055E-1,8.905130145E0
1.607079833E1,3.724274667E0,-1.742576684E0,5.549178393E0,6.906531411E0
1.608081633E1,3.338702250E0,2.665013545E0,3.687978076E0,5.643616943E0
1.609083333E1,3.866730674E0,4.348006516E0,-8.262013391E-2,5.819243323E0
1.610085133E1,3.102513329E0,4.395931465E0,-3.687833650E0,6.523029927E0
1.611086833E1,2.504236456E0,3.706568128E0,-6.658098164E0,8.021229250E0
1.612088633E1,3.096822234E0,3.074067795E0,-6.766704347E0,8.051614029E0
1.613090333E1,4.019206470E0,1.228601750E0,-5.648093401E0,7.040201842E0
1.614092133E1,4.298912124E0,-1.607613591E0,-4.448436538E0,6.391686361E0
1.615093833E1,3.729593002E0,-3.474288071E0,-3.450163044E0,6.155011502E0
1.616095633E1,2.683187860E0,-4.461685159E0,-2.838436698E0,5.929827522E0
1.617097333E1,1.196361665E0,-4.674067726E0,-2.507331680E0,5.437361722E0
1.618099133E1,-3.770921268E-1,-4.227485461E0,-2.278649415E0,4.817268412E0
1.619100833E1,-1.520655700E0,-3.291358514E0,-1.737607720E0,4.020536683E0
1.620102633E1,-2.136046350E0,-2.012052634E0,-1.360652930E0,3.234567391E0
1.621104333E1,-2.582932378E0,-1.039131498E0,-1.044581103E0,2.973631386E0
1.622106133E1,-2.868246388E0,-4.001091796E-1,-3.573695415E-1,2.917985211E0
1.623107833E1,-2.845872018E0,3.815010005E-1,1.421340724E-2,2.871364236E0
1.624109633E1,-2.583484647E0,1.148325326E0,-3.892234182E-1,2.853863845E0
1.625111333E1,-2.263624848E0,1.839237006E0,-1.130258600E0,3.127982531E0
1.626113133E1,-1.841582762E0,2.288075126E0,-1.940854597E0,3.520458979E0
1.627114833E1,-1.633484012E0,2.467880516E0,-2.212305737E0,3.694996743E0
1.628116633E1,-1.353119669E0,2.557158728E0,-1.850228602E0,3.434143194E0
1.629118333E1,-9.437901615E-1,2.409904203E0,-1.084618889E0,2.806203177E0
1.630120133E1,-2.660798872E-1,2.216030413E0,-1.841522098E-2,2.232023391E0
1.631121833E1,4.538012373E-1,1.806676785E0,5.364481223E-1,1.938502813E0
1.632123633E1,9.816257398E-1,1.495546440E0,8.119863193E-1,1.964578843E0
1.633125333E1,1.292678609E0,1.244810232E0,1.261781191E0,2.193778082E0
1.634127133E1,1.468046401E0,1.110085706E0,1.646244975E0,2.469326432E0
1.635128833E1,1.435118537E0,9.149383914E-1,2.201267363E0,2.782490876E0
1.636130633E1,1.192065569E0,7.424747658E-1,2.755172932E0,3.092453231E0
1.637132333E1,6.012190457E-1,4.414536721E-1,3.883953356E0,3.954925961E0
1.638134133E1,-9.770109710E-1,-3.974533743E-1,5.269483849E0,5.374009644E0
1.639135833E1,-2.891664195E0,-1.124624807E0,5.912530221E0,6.677163798E0
1.640137633E1,-4.192196930E0,-1.233220466E0,5.274006085E0,6.849123156E0
1.641139333E1,-4.923030474E0,-9.828245652E-1,3.558027216E0,6.153188673E0
1.642141033E1,-5.287437140E0,-7.436196506E-1,1.599974935E0,5.574036373E0
1.643142833E1,-5.385156392E0,-1.074142286E0,-1.988329603E-1,5.494836264E0
1.644144533E1,-5.506421213E0,-1.704630593E0,-6.282282118E-1,5.798371385E0
1.645146333E1,-5.851839046E0,-2.288401986E0,-7.852446632E-1,6.332251815E0
1.646148033E1,-6.438275015E0,-2.693753779E0,-2.555046129E-1,6.983765259E0
1.647149833E1,-7.023157378E0,-2.857933654E0,1.284197077E0,7.690363221E0
1.648151533E1,-7.291739874E0,-3.025085669E0,3.154549748E0,8.501282127E0
1.649153333E1,-6.131017281E0,-3.433621271E0,4.735670482E0,8.473824570E0
1.650155033E1,-5.055255901E0,-4.268497247E0,6.215873244E0,9.078147452E0
1.651156833E1,-4.174392451E0,-5.562450403E0,7.947484059E0,1.056072487E1
1.652158533E1,-3.162300232E0,-5.727568756E0,8.941470959E0,1.107948959E1
1.653160333E1,-3.096327268E0,-4.953352380E0,7.307640792E0,9.355455964E0
1.654162033E1,-4.036117495E0,-4.389469122E0,5.080166209E0,7.833630851E0
1.655163833E1,-4.959898923E0,-3.502952877E0,4.576973541E0,7.603943909E0
1.656165533E1,-4.590304608E0,-2.251046464E0,4.592729448E0,6.872501026E0
1.657167333E1,-3.547120405E0,-1.763457676E0,3.793188196E0,5.484534878E0
1.658169033E1,-2.024623417E0,-2.929390723E0,1.984559026E0,4.076629062E0
1.659170833E1,-6.424935177E-2,-5.464282669E0,1.093066982E-1,5.465753472E0
1.660172533E1,1.751811630E0,-7.572826055E0,-2.753908764E0,8.246244717E0
1.661174333E1,3.683773635E0,-7.757544860E0,-5.372234046E0,1.012968850E1
1.662176033E1,5.320502560E0,-6.705980428E0,-5.895049385E0,1.039372543E1
1.663177833E1,6.171630871E0,-6.316229591E0,-5.137416882E0,1.021649823E1
1.664179533E1,6.293675711E0,-5.948120468E0,-3.957444085E0,9.521126758E0
1.665181333E1,5.736744207E0,-5.307983086E0,-1.953719641E0,8.056173966E0
1.666183033E1,4.490033630E0,-5.090723357E0,6.694962519E-1,6.820857096E0
