"Time (s)","Linear Acceleration x (m/s^2)","Linear Acceleration y (m/s^2)","Linear Acceleration z (m/s^2)","Absolute acceleration (m/s^2)"
1.495720842E-2,-4.752616882E-1,4.890894762E-1,-1.351484495E0,1.513800690E0
2.495320840E-2,-7.290653461E-1,5.989104187E-1,-4.631041574E-1,1.051044923E0
3.494920838E-2,-9.414686707E-1,8.402378726E-1,7.812394667E-1,1.484148929E0
4.494420835E-2,-8.984542134E-1,1.043692326E0,1.709228259E0,2.194988584E0
5.494020833E-2,-6.962984267E-1,1.165261787E0,2.038694302E0,2.449273564E0
6.493620831E-2,-6.217698160E-1,8.445235893E-1,2.166924326E0,2.407359307E0
7.493120828E-2,-1.893128453E0,1.380219760E0,1.137516748E0,2.604397489E0
8.492720826E-2,-1.129458408E0,1.599801418E0,-8.107749224E-3,1.958342822E0
9.492320823E-2,-3.131640065E-1,1.525573062E0,1.363512218E-1,1.563341460E0
1.049182082E-1,-7.019909835E-1,9.890205672E-1,-1.281709671E-3,1.212829199E0
1.149142084E-1,-3.281872576E-1,5.492199031E-1,-2.275841582E-1,6.790757889E-1
1.249102084E-1,1.140572503E-1,1.857663336E-1,-5.784042335E-1,6.181178240E-1
1.349052084E-1,8.105405952E-1,-1.833271676E-1,-8.547477382E-1,1.192131957E0
1.449012083E-1,1.080793202E0,-6.691310933E-1,-3.698498386E-1,1.323872829E0
1.548972083E-1,5.733294350E-1,-1.397206213E0,5.014952213E-1,1.591348265E0
1.648922083E-1,5.105072424E-1,-1.757365754E0,5.867353463E-1,1.921772724E0
1.748882083E-1,1.174598694E0,-1.645429873E0,8.729694164E-1,2.202089272E0
1.848832082E-1,7.690536500E-1,-1.516769494E0,1.013326566E0,1.979612069E0
1.948792082E-1,-3.184868000E-1,-1.402495605E0,-1.622543871E-1,1.447326587E0
2.048752082E-1,-1.106690812E0,-1.261474797E0,-1.420793881E0,2.198803872E0
2.148702084E-1,-1.416104414E0,-1.094930600E0,-1.540547197E0,2.361675337E0
2.248662084E-1,-1.129603346E0,-6.537973550E-1,-1.135284281E0,1.729833836E0
2.348622084E-1,-3.293668603E-1,2.694432056E-1,-1.555020810E0,1.612194743E0
2.448572083E-1,1.016332144E-1,8.120975626E-1,-1.789300030E0,1.967594053E0
2.548532083E-1,4.721787438E-1,8.743505287E-1,-2.098822975E0,2.322175595E0
2.648492083E-1,-7.022039135E-2,3.216272664E-1,-1.870368167E0,1.899118764E0
2.748442083E-1,-5.299702113E-1,-1.074612987E-1,1.814850608E0,1.893699840E0
2.848402082E-1,1.154485149E0,7.764324707E-1,9.588878185E-1,1.689718672E0
2.948362082E-1,1.513079317E0,1.477218343E0,-9.248283720E-1,2.308005756E0
3.048312082E-1,2.135786441E0,8.202035576E-1,-2.058545600E0,3.077649685E0
3.148272084E-1,1.718799274E0,-3.597212917E-1,-2.707054440E0,3.226734277E0
3.248232084E-1,1.124623345E0,-1.019326394E0,-1.424686958E0,2.081714892E0
3.348182084E-1,9.246971020E-1,-8.183874124E-1,1.190037024E-1,1.240558168E0
3.448142083E-1,1.058444705E0,-1.878254306E-1,1.034703986E0,1.492044210E0
3.548092083E-1,1.152136469E0,1.080834424E-1,1.029253796E0,1.548697469E0
3.648052083E-1,1.151448909E0,-3.397273225E-1,-1.301882565E-1,1.207558788E0
3.748012083E-1,1.506370221E0,-8.662193906E-1,-1.873698156E0,2.555431873E0
3.847962082E-1,1.676713208E0,-6.506904370E-1,-3.539849392E0,3.970553985E0
3.947922082E-1,9.625229593E-1,-1.571790040E-1,-3.993119702E0,4.110493966E0
4.047882082E-1,1.711231515E-1,3.893304223E-1,-3.166209973E0,3.194643471E0
4.147832084E-1,1.192511858E0,-2.207665971E-1,-4.253278114E0,4.422804217E0
4.247792084E-1,1.407028074E0,-1.016839280E0,-5.068427923E0,5.357485580E0
4.347752084E-1,8.328709656E-1,-1.151141930E0,-4.313479292E0,4.541465115E0
4.447702083E-1,1.286311430E-1,-1.550804090E0,-3.034195631E0,3.409968097E0
4.547662083E-1,-1.119683325E-1,-1.432445043E0,-2.027012150E0,2.484595333E0
4.647622083E-1,5.744430372E-1,-8.170454764E-1,-2.066324151E0,2.295047627E0
4.747572083E-1,1.603279927E0,-7.679294497E-1,-2.597667069E0,3.147712878E0
4.847532082E-1,2.493959975E0,-9.170515752E-1,-2.221786997E0,3.463691298E0
4.947492082E-1,1.619691015E0,-9.755096984E-1,-1.321463136E0,2.306790622E0
5.047442084E-1,-1.054845890E0,-1.856015591E0,-1.324212497E0,2.512176837E0
5.147402084E-1,-5.752483158E0,-5.600053847E-1,-3.660813666E0,6.841507524E0
5.247352084E-1,-5.755800868E0,1.598423230E0,-3.349386283E0,6.848546482E0
5.347312083E-1,-1.450877075E0,6.761816660E-1,-3.248803064E0,3.621738157E0
5.447272083E-1,-7.686242451E-1,-3.794641230E-1,-2.485928532E0,2.629565918E0
5.547222083E-1,-2.622125022E-1,-8.629420263E-1,-1.015732110E0,1.358357853E0
5.647182083E-1,5.687129851E-1,-8.005174443E-1,2.278665787E-1,1.008060423E0
5.747142083E-1,1.664643532E0,1.739999816E-1,1.209838620E0,2.065193349E0
5.847092082E-1,3.118843433E0,1.810028702E0,1.602986689E0,3.946258302E0
5.947013749E-1,4.433576132E0,3.267930768E0,3.040020627E0,6.291080530E0
6.046973749E-1,4.151607313E0,3.258558851E0,4.030479317E0,6.640693683E0
6.146923751E-1,3.908463714E0,2.899410878E0,4.962385744E0,6.950391666E0
6.246883750E-1,3.504688330E0,2.475346533E0,7.048410333E0,8.251682797E0
6.346843750E-1,3.570502543E0,1.762669471E0,1.042455874E1,1.115916291E1
6.446793750E-1,3.558636496E0,9.597277710E-1,1.453016717E1,1.499035454E1
6.546753750E-1,3.361432716E0,2.593605593E-1,2.020760307E1,2.048691582E1
6.646703749E-1,4.352603012E0,-1.865010363E-1,2.452130222E1,2.490530462E1
6.746663749E-1,5.219210658E0,2.807707241E-1,2.653803263E1,2.704784960E1
6.846623749E-1,4.822104024E0,1.080604921E0,2.644569808E1,2.690344478E1
6.946573749E-1,4.302251469E0,1.773488574E0,2.383203946E1,2.428210728E1
7.046533751E-1,3.792614585E0,2.576803619E0,2.015558390E1,2.067054438E1
7.146493751E-1,3.726173258E0,3.662825108E0,1.510355450E1,1.598180257E1
7.246443750E-1,3.593274525E0,4.690693114E0,9.118559732E0,1.086565025E1
7.346403750E-1,2.423157502E0,5.377684236E0,3.883924119E0,7.062297543E0
7.446363750E-1,1.865261793E-1,5.682100807E0,-1.873091215E-1,5.688246330E0
7.546313750E-1,-1.617741553E0,5.808816987E0,-3.346473784E0,6.896254731E0
7.646273749E-1,-2.383025430E0,5.240289286E0,-4.977653409E0,7.610287475E0
7.746233749E-1,-3.709812456E0,4.219371865E0,-5.786619202E0,8.065405705E0
7.846183749E-1,-5.002877128E0,2.342917916E0,-6.270807835E0,8.357097272E0
7.946143749E-1,-4.996293747E0,5.885807276E-3,-5.665312282E0,7.553724188E0
8.046093751E-1,-4.973086733E0,-2.154632894E0,-4.367983528E0,6.960841520E0
8.146053751E-1,-5.317573689E0,-4.031374526E0,-3.121465909E0,7.366961377E0
8.246013750E-1,-5.970733405E0,-5.372559736E0,-1.927920556E0,8.260201764E0
8.345963750E-1,-6.291660175E0,-6.212385964E0,-1.788811787E0,9.021007413E0
8.445923750E-1,-6.428031278E0,-7.141065313E0,-2.106572875E0,9.836261952E0
8.545883750E-1,-6.646338243E0,-7.695326393E0,-2.543321292E0,1.048142851E1
8.645833749E-1,-6.820090595E0,-8.045365865E0,-3.173715459E0,1.101426427E1
8.745793749E-1,-7.033645529E0,-8.454498467E0,-4.148748609E0,1.175426853E1
8.845753749E-1,-7.554110872E0,-8.942953813E0,-4.992945632E0,1.272676393E1
8.945703749E-1,-8.649922355E0,-9.116481632E0,-5.128671201E0,1.357330698E1
9.045663751E-1,-9.566811377E0,-8.873308797E0,-5.393848279E0,1.411924531E1
9.145613750E-1,-9.538731294E0,-8.607219554E0,-5.569486942E0,1.400324277E1
9.245573750E-1,-9.939143944E0,-8.464037030E0,-5.477759916E0,1.415741357E1
9.345533750E-1,-1.121135306E1,-8.505476248E0,-5.608234102E0,1.514892251E1
9.445483750E-1,-1.173551150E1,-8.083345869E0,-5.470767231E0,1.526407563E1
9.545443750E-1,-1.147421698E1,-8.020158518E0,-5.264341807E0,1.495639972E1
9.645403749E-1,-1.097985711E1,-8.163287247E0,-4.810182136E0,1.450290913E1
9.745353749E-1,-1.067483711E1,-7.891337340E0,-4.336774600E0,1.396542037E1
9.845313749E-1,-1.047869226E1,-7.343017032E0,-3.885355810E0,1.337231769E1
9.945273749E-1,-9.935661342E0,-6.994907725E0,-3.382489125E0,1.261298272E1
1.004522375E0,-9.155585471E0,-6.870554405E0,-2.968664131E0,1.182549068E1
1.014518375E0,-8.273414292E0,-6.635283498E0,-2.699242560E0,1.094359546E1
1.024513375E0,-7.602600077E0,-6.238262233E0,-2.408930203E0,1.012513646E1
1.034509375E0,-7.157242804E0,-5.597444234E0,-2.335945404E0,9.381585551E0
1.044505375E0,-6.584006340E0,-4.887922622E0,-2.566042403E0,8.592176712E0
1.054500375E0,-6.416674815E0,-4.506115812E0,-2.907491146E0,8.362553447E0
1.064496375E0,-6.489072116E0,-4.466592727E0,-2.967784710E0,8.418209644E0
1.074492375E0,-5.691668606E0,-4.251672469E0,-3.125247596E0,7.761377638E0
1.084487375E0,-4.362432182E0,-3.883369803E0,-2.928831436E0,6.533714805E0
1.094483375E0,-3.691147267E0,-3.480873790E0,-2.549326383E0,5.678037997E0
1.104479375E0,-3.074124513E0,-2.986843125E0,-2.188446904E0,4.812564101E0
1.114474375E0,-2.185235467E0,-2.462595218E0,-1.875873905E0,3.789265385E0
1.124470375E0,-6.097201663E-1,-1.431001951E0,-1.397108565E0,2.090798318E0
1.134465375E0,4.110528284E-1,5.809676528E-2,-3.539091593E-1,5.455193442E-1
1.144461375E0,2.122381992E0,1.860199859E0,5.349012414E-1,2.872449855E0
1.154457375E0,5.139744658E0,4.244528925E0,1.972017918E0,6.951392351E0
1.164452375E0,9.807834191E0,7.284981077E0,3.590767238E0,1.273413406E1
1.174448375E0,1.576170189E1,9.796931473E0,5.510704883E0,1.935920920E1
1.184444375E0,2.196798921E1,1.141295570E1,7.486791294E0,2.586310406E1
1.194439375E0,2.687846454E1,1.224876138E1,9.390536537E0,3.099461546E1
1.204435375E0,3.005500186E1,1.273941294E1,1.105163169E1,3.446352190E1
1.214431375E0,3.073768066E1,1.341048034E1,1.211783287E1,3.565792856E1
1.224426375E0,2.873632843E1,1.389468593E1,1.257678082E1,3.430764179E1
1.234422375E0,2.564379221E1,1.364087935E1,1.269711886E1,3.170007091E1
1.244417375E0,2.179756158E1,1.291090944E1,1.213814259E1,2.809198781E1
1.254413375E0,1.753561497E1,1.201100190E1,1.082883523E1,2.385425814E1
1.264409375E0,1.370087061E1,1.113321087E1,9.209025514E0,1.991151402E1
1.274404375E0,1.021033430E1,1.005122805E1,7.456061836E0,1.615150055E1
1.284400375E0,7.199838016E0,8.748888819E0,5.662868146E0,1.266683854E1
1.294396375E0,4.582026705E0,7.496690045E0,3.891200102E0,9.609202287E0
1.304391375E0,2.278789163E0,6.467008232E0,2.217141676E0,7.206302293E0
1.314387375E0,2.767381918E-1,5.543976125E0,9.133508724E-1,5.625519098E0
1.324382375E0,-1.453045954E0,4.428153716E0,-4.097714111E-2,4.660640193E0
1.334378375E0,-2.612771596E0,2.705823601E0,-7.446826744E-1,3.834398136E0
1.344374375E0,-3.325552447E0,5.403534776E-1,-1.421244263E0,3.656667364E0
1.354369375E0,-3.991551479E0,-1.735091663E0,-2.024877917E0,4.800328829E0
1.364365375E0,-4.560083858E0,-3.998318462E0,-2.377104393E0,6.513949694E0
1.374361375E0,-4.817250250E0,-5.880960519E0,-2.566292664E0,8.023556233E0
1.384356375E0,-5.299252608E0,-7.189157492E0,-2.891771491E0,9.387673088E0
1.394352375E0,-5.969890822E0,-8.633159557E0,-3.340955767E0,1.101512713E1
1.404348375E0,-6.920177386E0,-9.964275277E0,-3.881269484E0,1.273734233E1
1.414343375E0,-8.220291753E0,-1.080499730E1,-4.275243180E0,1.423372289E1
1.424339375E0,-9.816721959E0,-1.130055818E1,-4.269355034E0,1.556592553E1
1.434334375E0,-1.180145055E1,-1.155297780E1,-4.041742809E0,1.700238854E1
1.444330375E0,-1.341277362E1,-1.147782237E1,-3.815954915E0,1.806112993E1
1.454326375E0,-1.435097340E1,-1.128968119E1,-3.620214694E0,1.861486754E1
1.464321375E0,-1.450094513E1,-1.104746613E1,-3.128383166E0,1.849623472E1
1.474317375E0,-1.435422329E1,-1.087421664E1,-3.032501693E0,1.826166422E1
1.484313375E0,-1.368676479E1,-1.055052764E1,-2.936683955E0,1.752898390E1
1.494308375E0,-1.307574479E1,-9.920685453E0,-2.897017028E0,1.666696761E1
1.504304375E0,-1.249101387E1,-9.296502784E0,-2.677849352E0,1.579940722E1
1.514299375E0,-1.173530685E1,-8.763800973E0,-2.528292194E0,1.486317247E1
1.524295375E0,-1.095019536E1,-8.201816306E0,-2.309955407E0,1.387488606E1
1.534291375E0,-1.026135008E1,-7.447712597E0,-1.925351290E0,1.282461329E1
1.544286375E0,-9.690659498E0,-6.600373281E0,-1.348017681E0,1.180215915E1
1.554282375E0,-9.237917776E0,-5.834996726E0,-6.824788249E-1,1.094769788E1
1.564278375E0,-8.707719743E0,-5.144713622E0,-1.271202955E-3,1.011397365E1
1.574273375E0,-8.291883307E0,-4.545548850E0,6.423505533E-1,9.477866709E0
1.584269375E0,-7.806167382E0,-4.111714392E0,1.177877739E0,8.901114560E0
1.594264625E0,-7.084811005E0,-3.399965575E0,1.674420369E0,8.034799093E0
1.604260625E0,-6.421802239E0,-2.509013047E0,2.061848692E0,7.196242804E0
1.614256625E0,-5.759119163E0,-1.750020774E0,2.177767403E0,6.400991884E0
1.624251625E0,-4.938377076E0,-1.059368126E0,2.039361470E0,5.446909599E0
1.634247625E0,-4.054098560E0,-2.024411309E-1,1.756683676E0,4.422966774E0
1.644243625E0,-3.198371998E0,4.922984281E-1,1.410340229E0,3.530014269E0
1.654238625E0,-2.041419105E0,8.913106701E-1,9.793583357E-1,2.433304219E0
1.664234625E0,-7.314743990E-1,1.262792759E0,7.610689116E-1,1.645881599E0
1.674230625E0,1.059371635E0,1.599320777E0,9.913509750E-1,2.159368418E0
1.684225625E0,3.613942970E0,2.085387243E0,1.318037252E0,4.375688054E0
1.694221625E0,6.253087848E0,3.221777818E0,1.789631567E0,7.258356638E0
1.704216625E0,8.909106036E0,4.766922973E0,1.921435994E0,1.028531192E1
1.714212625E0,1.164155610E1,6.336021246E0,1.397671652E0,1.332758342E1
1.724208625E0,1.488951366E1,7.853069653E0,7.777019012E-1,1.685150261E1
1.734203625E0,1.886319020E1,9.202405297E0,4.203072166E-1,2.099240019E1
1.744199625E0,2.335640121E1,1.045145827E1,5.530483675E-1,2.559414620E1
1.754195625E0,2.703188378E1,1.135759309E1,6.647863197E-1,2.932847767E1
1.764190625E0,2.986617422E1,1.202887684E1,7.740193248E-1,3.220685248E1
1.774186625E0,3.124851213E1,1.252096564E1,1.027002618E0,3.367935311E1
1.784181625E0,3.000763240E1,1.270984240E1,1.056822833E0,3.260544388E1
1.794177625E0,2.657979344E1,1.160268849E1,1.048161353E0,2.902079327E1
1.804173625E0,2.187971262E1,9.282503965E0,1.539937332E0,2.381718101E1
1.814168625E0,1.696367659E1,6.829054962E0,2.218642364E0,1.842076787E1
1.824164625E0,1.258042949E1,5.008793340E0,2.512799411E0,1.377205060E1
1.834159625E0,8.914083186E0,4.228050887E0,2.299419163E0,1.013038113E1
1.844155625E0,6.211198395E0,3.755018157E0,1.768665791E0,7.470430077E0
1.854151625E0,4.258902551E0,3.149435481E0,1.317857743E0,5.458382894E0
1.864146625E0,2.826704260E0,2.870549607E0,9.422968557E-1,4.137418928E0
1.874142625E0,1.913934601E0,2.590642809E0,4.589807010E-1,3.253496443E0
1.884138625E0,8.611691505E-1,1.939575226E0,3.087563753E-2,2.122384901E0
1.894133625E0,-5.591937912E-1,9.291319227E-1,-4.046822870E-1,1.157476384E0
1.904129625E0,-2.366949388E0,-2.366625452E-1,-9.079136197E-1,2.546127590E0
1.914124625E0,-4.174005657E0,-1.441942091E0,-1.499760529E0,4.663775495E0
1.924120625E0,-5.686243560E0,-2.636173615E0,-2.166151325E0,6.631364016E0
1.934116625E0,-6.771903691E0,-3.842753874E0,-2.726789378E0,8.249898015E0
1.944111625E0,-7.541387916E0,-4.975267160E0,-3.222727405E0,9.592277463E0
1.954107625E0,-8.076873001E0,-5.957857252E0,-3.464872885E0,1.061778153E1
1.964103625E0,-8.820397927E0,-6.739392003E0,-3.503837560E0,1.164026210E1
1.974098625E0,-1.008262760E1,-7.310494233E0,-3.282300008E0,1.287929340E1
1.984094625E0,-1.161860929E1,-7.545629486E0,-2.821132448E0,1.413815386E1
1.994089625E0,-1.303596267E1,-7.367037978E0,-2.555005199E0,1.519005013E1
2.004085625E0,-1.434557993E1,-6.906201956E0,-2.699560064E0,1.614865052E1
2.014081625E0,-1.528809613E1,-6.473386960E0,-2.767253280E0,1.683117087E1
2.024076625E0,-1.576142941E1,-6.128288970E0,-2.730897047E0,1.712998486E1
2.034072625E0,-1.572180867E1,-5.907967054E0,-2.633408175E0,1.700041709E1
2.044068625E0,-1.522831537E1,-5.868484315E0,-2.336539189E0,1.648636141E1
2.054063625E0,-1.443772737E1,-5.858483822E0,-1.830560907E0,1.568823628E1
2.064059625E0,-1.360384659E1,-5.701080869E0,-1.305237697E0,1.480778885E1
2.074054625E0,-1.281532734E1,-5.513218017E0,-7.976642954E-1,1.397370588E1
2.084050625E0,-1.209734656E1,-5.431578022E0,-2.679685378E-1,1.326347017E1
2.094046625E0,-1.160786445E1,-5.344074440E0,2.455503861E-1,1.278131228E1
2.104041625E0,-1.127349844E1,-5.326773698E0,7.535938311E-1,1.249136456E1
2.114037625E0,-1.098936352E1,-5.300975783E0,1.207066455E0,1.226064697E1
2.124033625E0,-1.085618967E1,-5.193109857E0,1.565577665E0,1.213574380E1
2.134028625E0,-1.063631916E1,-5.004526042E0,1.915613337E0,1.190991774E1
2.144024625E0,-1.030595148E1,-4.701773296E0,2.260879726E0,1.155122873E1
2.154019625E0,-9.986534457E0,-4.376002400E0,2.399048263E0,1.116403601E1
2.164015625E0,-9.674501302E0,-4.105317830E0,2.198733180E0,1.073704045E1
2.174011625E0,-9.226161949E0,-3.852000369E0,1.882253802E0,1.017363507E1
2.184006625E0,-8.552077387E0,-3.540508373E0,1.673365677E0,9.406028910E0
2.194002625E0,-7.970447829E0,-3.060101720E0,1.454630549E0,8.660728097E0
2.203997625E0,-6.549197865E0,-2.403322870E0,1.232181562E0,7.084223662E0
2.213993625E0,-4.024323369E0,-1.467222528E0,7.252433136E-1,4.344410016E0
2.223989625E0,-1.155580552E0,-3.280673897E-1,-3.171738808E-1,1.242414542E0
2.233984625E0,2.131746308E0,5.372459748E-1,-9.847852828E-1,2.408895517E0
2.243980625E0,5.974841659E0,1.197751548E0,-1.109903272E0,6.193966976E0
2.253976625E0,9.973455405E0,2.508003817E0,-1.593882282E0,1.040674573E1
2.263971625E0,1.401021873E1,4.590927044E0,-2.190757577E0,1.490510847E1
2.273967625E0,1.880253820E1,6.772067998E0,-2.516779611E0,2.014275372E1
2.283962625E0,2.394587773E1,9.027725576E0,-3.038564671E0,2.577087046E1
2.293958625E0,2.814706007E1,1.090679265E1,-3.938192128E0,3.044214963E1
2.303954625E0,3.032173313E1,1.164480365E1,-4.600238442E0,3.280504757E1
2.313949625E0,3.035748301E1,1.105453190E1,-4.560663317E0,3.262788838E1
2.323945625E0,2.872212672E1,9.545682464E0,-3.990755381E0,3.052878552E1
2.333940625E0,2.578707238E1,7.775941955E0,-2.975560337E0,2.709782897E1
2.343936625E0,2.235444806E1,6.307577466E0,-1.769712442E0,2.329460804E1
2.353932625E0,1.894743454E1,5.337737228E0,-9.665482557E-1,1.970865115E1
2.363927625E0,1.618123026E1,4.743199942E0,-4.453028941E-1,1.686797122E1
2.373923625E0,1.413238811E1,4.650137411E0,-1.344660795E-1,1.487838206E1
2.383919625E0,1.220379162E1,4.814022879E0,6.693176195E-2,1.311913968E1
2.393914625E0,1.032295869E1,4.762265665E0,1.200583939E-1,1.136912769E1
2.403910625E0,8.662045972E0,4.698347120E0,-6.222482644E-2,9.854409064E0
2.413905625E0,7.511005198E0,4.629950192E0,-1.813934934E-1,8.825221893E0
2.423901625E0,6.700713841E0,4.428888711E0,-2.224676983E-1,8.035179716E0
2.433897625E0,5.909110184E0,4.117207559E0,-3.525846919E-1,7.210637782E0
2.443892625E0,4.799363033E0,3.666773148E0,-5.053011008E-1,6.060894327E0
2.453888625E0,3.317968023E0,2.920802917E0,-6.168789124E-1,4.463243336E0
2.463883625E0,1.542620035E0,1.901883489E0,-7.190368596E-1,2.552224791E0
2.473879625E0,-3.149854141E-1,6.819478977E-1,-8.101363333E-1,1.104802980E0
2.483875625E0,-2.408869246E0,-7.187426716E-1,-9.526611916E-1,2.688271828E0
2.493870625E0,-4.638455844E0,-2.197009713E0,-1.039087644E0,5.236585474E0
2.503866625E0,-6.839513876E0,-3.705053115E0,-1.112467715E0,7.857732056E0
2.513862625E0,-8.699803197E0,-5.225035654E0,-1.017794350E0,1.019919010E1
2.523857625E0,-1.035478274E1,-6.611593503E0,-1.018763745E0,1.232771568E1
2.533853625E0,-1.191541863E1,-7.592684369E0,-1.087078008E0,1.417066674E1
2.543848625E0,-1.324660744E1,-8.037942824E0,-1.174445862E0,1.553899793E1
2.553844625E0,-1.435935597E1,-7.981280381E0,-1.284772443E0,1.647854911E1
2.563840625E0,-1.513111359E1,-7.564382676E0,-1.113890050E0,1.695320722E1
2.573835625E0,-1.536486423E1,-6.980810673E0,-1.306146355E0,1.692680681E1
2.583831625E0,-1.504761068E1,-6.535986081E0,-1.934012185E0,1.651938571E1
2.593825875E0,-1.482362022E1,-6.312492635E0,-2.466932975E0,1.629947968E1
2.603821875E0,-1.457597660E1,-6.287423283E0,-2.365093482E0,1.604943777E1
2.613817875E0,-1.398165625E1,-6.364472044E0,-2.064923012E0,1.550022977E1
2.623812875E0,-1.338005026E1,-6.600665642E0,-1.650145068E0,1.501057996E1
2.633808875E0,-1.288991560E1,-6.837199548E0,-8.020999201E-1,1.461302795E1
2.643804875E0,-1.229378494E1,-6.790904803E0,6.780913666E-2,1.404486149E1
2.653799875E0,-1.176480488E1,-6.588232123E0,8.363344176E-1,1.350980724E1
2.663795875E0,-1.134973794E1,-6.339283408E0,1.568385937E0,1.309438429E1
2.673790875E0,-1.107773132E1,-5.886258681E0,2.132990595E0,1.272453619E1
2.683786875E0,-1.097375262E1,-5.251128269E0,2.538772159E0,1.242750815E1
2.693782875E0,-1.065652012E1,-4.576396713E0,2.764772014E0,1.192261684E1
2.703777875E0,-9.983068228E0,-3.924412287E0,2.674455628E0,1.105510633E1
2.713773875E0,-9.455779184E0,-3.540484692E0,2.394967930E0,1.037702574E1
2.723768875E0,-8.971194111E0,-3.439607066E0,2.088007965E0,9.832242765E0
2.733764875E0,-8.438306358E0,-3.449301749E0,1.850455474E0,9.301982703E0
2.743760875E0,-7.988566012E0,-3.354236548E0,1.704450353E0,8.830245792E0
2.753755875E0,-7.395474157E0,-2.932486238E0,1.487116656E0,8.093455968E0
2.763751875E0,-6.365243291E0,-2.229492750E0,1.324396684E0,6.873207887E0
2.773746875E0,-4.946709359E0,-1.279571637E0,1.105049206E0,5.227654426E0
2.783742875E0,-3.050235128E0,-2.291523814E-1,6.319800778E-1,3.123434643E0
2.793738875E0,-4.778818256E-1,7.009902325E-1,3.377585649E-1,9.131479582E-1
2.803733875E0,2.724103167E0,1.527740918E0,1.077023502E-1,3.125112825E0
2.813729875E0,5.904693782E0,2.610497029E0,-3.764463750E-1,6.466978837E0
2.823724875E0,8.661744255E0,4.365874145E0,-9.659380987E-1,9.747805241E0
2.833720875E0,1.186748901E1,6.324429141E0,-1.304343073E0,1.351062582E1
2.843716875E0,1.606459117E1,8.027802583E0,-1.279294625E0,1.800425779E1
2.853711875E0,2.134243069E1,9.369108245E0,-1.253588072E0,2.334204404E1
2.863707875E0,2.613103835E1,1.023160530E1,-1.123083920E0,2.808519592E1
2.873703875E0,2.874161198E1,1.052859006E1,-9.056540363E-1,3.062273138E1
2.883698875E0,2.912967765E1,1.033582607E1,-4.669352531E-1,3.091254517E1
2.893694875E0,2.816920465E1,9.639824975E0,-8.512040332E-2,2.977310131E1
2.903689875E0,2.636553041E1,8.531675867E0,1.228698814E-1,2.771183473E1
2.913685875E0,2.389301422E1,7.319357443E0,4.202909175E-1,2.499251421E1
2.923681875E0,2.085465128E1,6.404792104E0,8.100148574E-1,2.183103218E1
2.933676875E0,1.774662695E1,5.747111320E0,1.080756072E0,1.868529075E1
2.943672875E0,1.505372686E1,5.204865099E0,1.143895476E0,1.596915183E1
2.953667875E0,1.267083446E1,4.842257914E0,9.745530208E-1,1.359953165E1
2.963663875E0,1.046515829E1,4.522027548E0,6.288423157E-1,1.141769302E1
2.973659875E0,8.563341463E0,4.219033896E0,3.472521408E-1,9.552572851E0
2.983654875E0,7.037505861E0,3.923059534E0,6.846972585E-2,8.057392441E0
2.993650875E0,5.764507372E0,3.395169104E0,-3.152186815E-1,6.697468276E0
3.003645875E0,4.468235795E0,2.558562645E0,-6.686571765E-1,5.192155270E0
3.013641875E0,2.987766400E0,1.570304847E0,-7.954832840E-1,3.467765711E0
3.023637875E0,1.086999729E0,5.395512396E-1,-9.947306657E-1,1.569131303E0
3.033632875E0,-1.150463653E0,-5.390010166E-1,-1.152004395E0,1.714993539E0
3.043628875E0,-3.367101007E0,-1.669806916E0,-1.280182378E0,3.970452273E0
3.053623875E0,-5.440643545E0,-2.821787044E0,-1.513728358E0,6.313038718E0
3.063619875E0,-7.407876686E0,-3.913435017E0,-1.841304581E0,8.577995873E0
3.073615875E0,-9.081272623E0,-4.956302301E0,-2.035669538E0,1.054411663E1
3.083610875E0,-1.042877224E1,-5.854556247E0,-2.010469208E0,1.212753502E1
3.093606875E0,-1.160427426E1,-6.590045929E0,-1.890750976E0,1.347823526E1
3.103601875E0,-1.257767896E1,-7.051751432E0,-1.781534343E0,1.452924880E1
3.113597875E0,-1.345575299E1,-7.228355471E0,-1.740421400E0,1.537320650E1
3.123593875E0,-1.427613723E1,-7.084351999E0,-1.725873528E0,1.603043283E1
3.133588875E0,-1.495129300E1,-6.668512055E0,-1.800899152E0,1.646977393E1
3.143584875E0,-1.511111027E1,-6.177481595E0,-1.858418212E0,1.643047932E1
3.153579875E0,-1.499628850E1,-5.741852335E0,-1.970771291E0,1.617842626E1
3.163575875E0,-1.481007105E1,-5.536549577E0,-2.042378633E0,1.594248714E1
3.173571875E0,-1.439572799E1,-5.499251942E0,-1.962299845E0,1.553477959E1
3.183566875E0,-1.373549081E1,-5.591142690E0,-1.712918583E0,1.492845184E1
3.193562875E0,-1.300149333E1,-5.759280546E0,-1.135890638E0,1.426528615E1
3.203557875E0,-1.211635703E1,-5.851546100E0,-4.442772925E-1,1.346269222E1
3.213553875E0,-1.116325854E1,-5.819827879E0,1.332114132E-1,1.258993578E1
3.223549875E0,-1.033810882E1,-5.599408899E0,7.299734187E-1,1.177975956E1
3.233544875E0,-9.610556737E0,-5.227952830E0,1.198565700E0,1.100594618E1
3.243540875E0,-8.992007275E0,-4.747946419E0,1.245304906E0,1.024450947E1
3.253535875E0,-8.613022916E0,-4.305502813E0,1.103797610E0,9.692259148E0
3.263531875E0,-8.337560002E0,-3.988187576E0,9.719721329E-1,9.293292030E0
3.273527875E0,-8.027769839E0,-3.704851386E0,9.290933311E-1,8.890119616E0
3.283522875E0,-7.654080133E0,-3.476006276E0,8.529509620E-1,8.449561389E0
3.293518875E0,-7.238512085E0,-3.269434087E0,8.181998630E-1,7.984654499E0
3.303513875E0,-6.461188499E0,-2.923916267E0,7.949149346E-1,7.136394952E0
3.313509875E0,-5.694713836E0,-2.478879713E0,7.041872708E-1,6.250639169E0
3.323505875E0,-4.939772222E0,-1.908275373E0,8.188019800E-1,5.358479373E0
3.333500875E0,-4.169143113E0,-1.200161478E0,7.560041264E-1,4.403826076E0
3.343496875E0,-3.510134427E0,-5.394082752E-1,5.680499840E-1,3.596482416E0
3.353491875E0,-2.509282311E0,3.961693257E-2,5.108268658E-1,2.561056678E0
3.363487875E0,-7.662846279E-1,5.614630955E-1,5.741755271E-1,1.110004718E0
3.373483875E0,1.864012243E0,1.195761156E0,4.944325157E-1,2.269107731E0
3.383478875E0,4.862248083E0,2.189764720E0,1.423153818E-1,5.334489630E0
3.393474875E0,8.147407964E0,3.851190529E0,-3.435389762E-1,9.018311596E0
3.403470875E0,1.187940446E1,6.065103958E0,-9.664184475E-1,1.337309617E1
3.413465875E0,1.568971214E1,8.008188683E0,-1.458896677E0,1.767559143E1
3.423461875E0,1.906599971E1,9.038754594E0,-1.542012363E0,2.115630477E1
3.433456875E0,2.128689851E1,9.348645914E0,-1.486565410E0,2.329676169E1
3.443452875E0,2.264246553E1,9.269925435E0,-1.314732260E0,2.450186286E1
3.453447875E0,2.301296850E1,8.958157158E0,-1.030533167E0,2.471653895E1
3.463443875E0,2.217170386E1,8.489389973E0,-8.338994908E-1,2.375604307E1
3.473439875E0,2.052949697E1,7.943199220E0,-4.756274316E-1,2.201774015E1
3.483434875E0,1.889562938E1,7.455026879E0,3.912269667E-2,2.031314270E1
3.493430875E0,1.750490773E1,7.034140204E0,4.152984917E-1,1.886990715E1
3.503425875E0,1.601824146E1,6.595991378E0,8.095353857E-1,1.734204455E1
3.513421875E0,1.446382467E1,6.043607254E0,1.152282722E0,1.571798868E1
3.523417875E0,1.287002688E1,5.347188667E0,1.373619715E0,1.400417258E1
3.533412875E0,1.126000657E1,4.793075229E0,1.309078149E0,1.230751818E1
3.543408875E0,9.726536844E0,4.558908860E0,8.996771586E-1,1.077954489E1
3.553403875E0,8.393911373E0,4.521603917E0,3.783160222E-1,9.541790877E0
3.563399875E0,7.278503532E0,4.458202265E0,-3.736604691E-2,8.535430705E0
3.573395875E0,6.131788529E0,4.228442650E0,-3.599008743E-1,7.457082972E0
3.583390875E0,4.711933710E0,3.717679592E0,-6.336779630E-1,6.035313463E0
3.593386875E0,3.195501015E0,2.864595679E0,-8.039030553E-1,4.366164824E0
3.603382333E0,1.653828229E0,1.613259370E0,-8.845573553E-1,2.473902852E0
3.613378333E0,-7.966071188E-2,6.727484733E-2,-1.009913692E0,1.015281931E0
3.623374333E0,-2.101947142E0,-1.478339839E0,-1.334670242E0,2.895689059E0
3.633369333E0,-4.283480737E0,-2.952405363E0,-1.561426288E0,5.431662426E0
3.643365333E0,-6.430530962E0,-4.455775963E0,-1.721458587E0,8.010561001E0
3.653360333E0,-8.342993819E0,-5.907944834E0,-1.819671199E0,1.038366801E1
3.663356333E0,-1.011957732E1,-7.090441289E0,-1.725243198E0,1.247624411E1
3.673352333E0,-1.173985949E1,-7.854738448E0,-1.467641919E0,1.420123902E1
3.683347333E0,-1.311639814E1,-8.196912246E0,-1.187951907E0,1.551259167E1
3.693343333E0,-1.429842331E1,-8.092993775E0,-1.042972534E0,1.646296598E1
3.703338333E0,-1.501195436E1,-7.630470831E0,-1.042272037E0,1.687214241E1
3.713334333E0,-1.543927355E1,-6.990559151E0,-1.024890604E0,1.697908966E1
3.723330333E0,-1.545545046E1,-6.439652034E0,-9.751307988E-1,1.677173060E1
3.733325333E0,-1.502972989E1,-6.126067028E0,-1.014785373E0,1.626195767E1
3.743321333E0,-1.447223296E1,-5.954340736E0,-1.040584531E0,1.568382978E1
3.753316333E0,-1.398089143E1,-5.888120434E0,-8.404028372E-1,1.519347111E1
3.763312333E0,-1.337357856E1,-5.805141428E0,-5.278106153E-1,1.458872354E1
3.773308333E0,-1.270575052E1,-5.560511466E0,-1.697633084E-1,1.387026329E1
3.783303333E0,-1.174284391E1,-5.213500267E0,3.231778749E-1,1.285221429E1
3.793299333E0,-1.061847814E1,-4.879758447E0,7.498961250E-1,1.171010097E1
3.803294333E0,-9.893959000E0,-4.531263225E0,1.012099308E0,1.092918643E1
3.813290333E0,-9.443191298E0,-4.204586595E0,1.254482696E0,1.041278719E1
3.823286333E0,-9.355296537E0,-3.921579604E0,1.353863143E0,1.023392912E1
3.833281333E0,-9.384441984E0,-3.593366033E0,1.347882464E0,1.013887656E1
3.843277333E0,-9.195279295E0,-3.110632481E0,1.413321286E0,9.809519499E0
3.853272333E0,-8.846539074E0,-2.585680277E0,1.355545971E0,9.315819930E0
3.863268333E0,-8.422464496E0,-2.188019326E0,1.171767837E0,8.780568127E0
3.873264333E0,-8.001072621E0,-1.919826840E0,1.182580508E0,8.312724875E0
3.883259333E0,-7.806893606E0,-1.632511620E0,1.227011161E0,8.069587248E0
3.893255333E0,-7.459868959E0,-1.277364897E0,1.196001330E0,7.662357675E0
3.903250333E0,-6.891297403E0,-8.374233153E-1,1.339784071E0,7.070097528E0
3.913246333E0,-5.858823545E0,-3.036932713E-1,1.425493873E0,6.037389810E0
3.923242333E0,-4.581801002E0,4.089928544E-1,1.292586662E0,4.778174950E0
3.933237333E0,-3.153287627E0,1.241002817E0,9.021737735E-1,3.506740419E0
3.943233333E0,-1.256744399E0,2.044315523E0,4.802106254E-1,2.447291296E0
3.953228333E0,1.489855345E0,2.693495624E0,-8.665573597E-4,3.078081932E0
3.963224333E0,5.605392355E0,3.327171833E0,-4.892251316E-1,6.536806337E0
3.973219333E0,1.066073947E1,4.318695593E0,-9.708927369E-1,1.154318545E1
3.983215333E0,1.610866046E1,5.762048618E0,-1.569993775E0,1.718007644E1
3.993211333E0,2.102234942E1,7.177626198E0,-2.066772047E0,2.230984177E1
4.003206333E0,2.402086242E1,8.254859322E0,-2.229101279E0,2.549732195E1
4.013202333E0,2.494083059E1,8.867009007E0,-2.307224319E0,2.657051304E1
4.023197333E0,2.496775585E1,8.890602522E0,-2.430318003E0,2.661462175E1
4.033193333E0,2.444445343E1,8.388796813E0,-2.508183912E0,2.596524990E1
4.043189333E0,2.328247603E1,7.519665509E0,-2.740150266E0,2.461965643E1
4.053184333E0,2.132182510E1,6.494537508E0,-2.903189349E0,2.247727189E1
4.063180333E0,1.895604398E1,5.477537137E0,-2.546478789E0,1.989521477E1
4.073175333E0,1.706547310E1,4.749502071E0,-1.600791060E0,1.778624958E1
4.083171333E0,1.585607595E1,4.773034775E0,-6.618051168E-1,1.657211488E1
4.093167333E0,1.485313228E1,5.231735394E0,-7.088214085E-2,1.574774962E1
4.103162333E0,1.341631469E1,5.394233610E0,1.522053623E-1,1.446092745E1
4.113158333E0,1.175035641E1,5.086663050E0,2.387746326E-1,1.280632774E1
4.123153333E0,1.004588136E1,4.700543919E0,2.247410958E-1,1.109348250E1
4.133149333E0,8.519095582E0,4.371064426E0,4.956925906E-2,9.575158008E0
4.143144333E0,7.177689933E0,3.964619204E0,-3.102941199E-1,8.205712683E0
4.153140333E0,5.862459344E0,3.461437061E0,-7.886291047E-1,6.853605762E0
4.163136333E0,4.426911183E0,2.846493577E0,-1.261267805E0,5.412103545E0
4.173131333E0,2.989806494E0,1.979168478E0,-1.527638884E0,3.897400581E0
4.183127333E0,1.399949727E0,9.125696844E-1,-1.653525928E0,2.350912730E0
4.193122333E0,-4.803259617E-1,-2.895465177E-1,-1.662803121E0,1.754840287E0
4.203118333E0,-2.620263634E0,-1.587322583E0,-1.486275680E0,3.405053581E0
4.213114333E0,-4.552788872E0,-2.963785214E0,-1.149602431E0,5.552791646E0
4.223109333E0,-6.113865058E0,-4.308781055E0,-8.488403694E-1,7.527647050E0
4.233105333E0,-7.521029665E0,-5.519954594E0,-7.594645087E-1,9.360158774E0
4.243100333E0,-8.735833156E0,-6.509821545E0,-7.255295348E-1,1.091874309E1
4.253096333E0,-9.695497484E0,-7.315811691E0,-5.448692822E-1,1.215815178E1
4.263092333E0,-1.070010293E1,-7.901541901E0,-4.908317272E-1,1.331042760E1
4.273087333E0,-1.182629537E1,-8.212761124E0,-6.621094644E-1,1.441350396E1
4.283083333E0,-1.281307850E1,-8.264010800E0,-6.582515446E-1,1.526113201E1
4.293078333E0,-1.372645335E1,-8.241382075E0,-5.558702338E-1,1.602014019E1
4.303074333E0,-1.457368917E1,-8.216244310E0,-4.995065832E-1,1.673764002E1
4.313069333E0,-1.499522664E1,-8.121140517E0,-5.032499707E-1,1.706056874E1
4.323065333E0,-1.516734996E1,-7.881444436E0,-6.142722237E-1,1.710388849E1
4.333061333E0,-1.530024314E1,-7.567113326E0,-7.905189979E-1,1.708752657E1
4.343056333E0,-1.510500578E1,-7.164572289E0,-9.971151602E-1,1.674773221E1
4.353052333E0,-1.451748924E1,-6.693569713E0,-1.099371341E0,1.602404402E1
4.363047333E0,-1.375497490E1,-6.333422159E0,-1.052352637E0,1.517955918E1
4.373043333E0,-1.306320017E1,-6.102845396E0,-8.921775198E-1,1.444603410E1
4.383039333E0,-1.236808434E1,-5.963844216E0,-6.626859268E-1,1.374685785E1
4.393034333E0,-1.173498291E1,-5.861647750E0,-2.926005916E-1,1.312076040E1
4.403030333E0,-1.119993462E1,-5.766267968E0,1.082821016E-1,1.259762306E1
4.413025333E0,-1.064888015E1,-5.580860946E0,5.132697594E-1,1.203362386E1
4.423021333E0,-1.009744795E1,-5.200266264E0,7.389875595E-1,1.138188591E1
4.433017333E0,-9.405234683E0,-4.702698910E0,7.014869535E-1,1.053878078E1
4.443012333E0,-8.720909892E0,-4.123751470E0,6.030596030E-1,9.665571706E0
4.453008333E0,-7.952431973E0,-3.551079262E0,6.329398982E-1,8.732236319E0
4.463003333E0,-7.165666303E0,-2.941601463E0,5.766699493E-1,7.767389585E0
4.472999333E0,-6.413002179E0,-2.259353895E0,3.606549458E-1,6.808916872E0
4.482994333E0,-5.447271949E0,-1.530986415E0,2.190834761E-1,5.662569086E0
4.492990333E0,-4.202831846E0,-7.812344965E-1,8.951867893E-2,4.275761506E0
4.502986333E0,-2.831089672E0,-4.346586227E-2,-2.062919609E-1,2.838928387E0
4.512981333E0,-1.315437580E0,6.565470082E-1,-4.541345286E-1,1.538722903E0
4.522977333E0,3.635231513E-1,1.320796553E0,-5.740094662E-1,1.485307875E0
4.532972333E0,2.030832721E0,1.894682936E0,-6.036164041E-1,2.842262784E0
4.542968333E0,3.928778111E0,2.412677830E0,-6.999108365E-1,4.663280705E0
4.552964333E0,6.449687026E0,2.930637641E0,-7.695938596E-1,7.125964806E0
4.562959333E0,9.694075441E0,3.711975341E0,-8.682105137E-1,1.041670049E1
4.572955333E0,1.390646690E1,4.782697006E0,-1.297196899E0,1.476301907E1
4.582950333E0,1.865018081E1,6.106832612E0,-2.303223947E0,1.975923808E1
4.592946333E0,2.349147423E1,7.167588868E0,-3.535301428E0,2.481374715E1
4.602942083E0,2.712662739E1,7.954455110E0,-4.766500219E0,2.866787041E1
4.612937083E0,2.913614701E1,8.843665168E0,-5.777878200E0,3.099208532E1
4.622933083E0,2.947097261E1,9.560390550E0,-6.123426425E0,3.158220457E1
4.632928083E0,2.823927300E1,9.650451120E0,-5.777220973E0,3.039677662E1
4.642924083E0,2.633087747E1,8.782020312E0,-4.927842733E0,2.819082516E1
4.652919083E0,2.382125251E1,7.236459712E0,-4.002737203E0,2.521587448E1
4.662915083E0,2.076615952E1,5.501140008E0,-3.186650962E0,2.171751981E1
4.672911083E0,1.779173237E1,4.069059831E0,-2.372728776E0,1.840469588E1
4.682906083E0,1.516239620E1,3.258049266E0,-1.607418294E0,1.559156621E1
4.692902083E0,1.263580028E1,3.114035853E0,-1.121914330E0,1.306213458E1
4.702897083E0,1.030295770E1,3.367585741E0,-9.173462749E-1,1.087810164E1
4.712893083E0,8.410092958E0,3.492928118E0,-8.073070849E-1,9.142316726E0
4.722889083E0,6.807129073E0,3.235997369E0,-8.169343793E-1,7.581297182E0
4.732884083E0,5.391083715E0,2.696587340E0,-8.900698909E-1,6.093241445E0
4.742880083E0,3.916344591E0,2.032804110E0,-1.040343626E0,4.533471337E0
4.752875083E0,2.240567669E0,1.247466622E0,-1.238990060E0,2.848054216E0
4.762871083E0,4.329670233E-1,3.031904107E-1,-1.371922707E0,1.470223378E0
4.772866083E0,-1.706585902E0,-7.271468747E-1,-1.400576549E0,2.324390821E0
4.782862083E0,-3.825773560E0,-1.722009980E0,-1.288941215E0,4.388989765E0
4.792858083E0,-5.662312075E0,-2.702360880E0,-1.034891682E0,6.358894020E0
4.802853083E0,-7.301854972E0,-3.757905512E0,-6.418335132E-1,8.237165176E0
4.812849083E0,-8.665692295E0,-4.803432987E0,-2.401684626E-1,9.910846195E0
4.822844083E0,-9.774882208E0,-5.812683166E0,1.058860588E-1,1.137307433E1
4.832840083E0,-1.079457054E1,-6.653965352E0,3.810666255E-1,1.268633989E1
4.842835083E0,-1.166632959E1,-7.365428824E0,6.272203711E-1,1.381108950E1
4.852831083E0,-1.233503237E1,-7.786917179E0,8.393081653E-1,1.461141817E1
4.862827083E0,-1.290176439E1,-7.870403724E0,9.660910034E-1,1.514371523E1
4.872822083E0,-1.359450391E1,-7.484878085E0,8.762626413E-1,1.554354441E1
4.882818083E0,-1.426606715E1,-6.773394147E0,7.011022067E-1,1.580794372E1
4.892813083E0,-1.480150254E1,-5.961190749E0,5.422367927E-1,1.596603562E1
4.902809083E0,-1.518493487E1,-5.379791572E0,3.540816522E-1,1.611365192E1
4.912805083E0,-1.512033016E1,-5.147889245E0,2.517916310E-1,1.597462196E1
4.922800083E0,-1.469083697E1,-5.199750540E0,1.559406368E-1,1.558468524E1
4.932796083E0,-1.410250065E1,-5.350540291E0,-2.815430682E-2,1.508342132E1
4.942791083E0,-1.348203038E1,-5.450770923E0,-1.645008508E-1,1.454314640E1
4.952787083E0,-1.287710668E1,-5.476639005E0,-1.170998490E-1,1.399382591E1
4.962782083E0,-1.222568944E1,-5.496500827E0,1.327235361E-1,1.340509676E1
4.972778083E0,-1.162386243E1,-5.428081387E0,3.467352104E-1,1.283349020E1
4.982774083E0,-1.122904673E1,-5.243435673E0,4.506297076E-1,1.240113605E1
4.992769083E0,-1.092839694E1,-5.051304352E0,5.463579103E-1,1.205172362E1
5.002765083E0,-1.049425989E1,-4.835533909E0,6.452518686E-1,1.157273644E1
5.012760083E0,-9.952143474E0,-4.588441100E0,8.916489315E-1,1.099518027E1
5.022756083E0,-9.374463125E0,-4.335030960E0,1.142335366E0,1.039124547E1
5.032752083E0,-8.783050591E0,-4.002772578E0,1.270322803E0,9.735393471E0
5.042747083E0,-8.327997465E0,-3.485195760E0,1.259436457E0,9.115279011E0
5.052743083E0,-8.001208861E0,-2.789292605E0,1.198906081E0,8.557854420E0
5.062738083E0,-7.613473560E0,-2.031833764E0,1.000558001E0,7.943201143E0
5.072734083E0,-7.058658164E0,-1.385295143E0,6.960971363E-1,7.226911438E0
5.082729083E0,-6.183493702E0,-9.450506750E-1,3.254420630E-1,6.263755078E0
5.092725083E0,-5.216051992E0,-5.252393022E-1,-1.281510135E-1,5.243996319E0
5.102721083E0,-3.918299900E0,-1.421399653E-2,-5.503294122E-1,3.956783872E0
5.112716083E0,-2.038790197E0,5.347176388E-1,-7.848857903E-1,2.249140752E0
5.122712083E0,4.718521768E-1,1.016747187E0,-7.802056789E-1,1.365701366E0
5.132707083E0,3.660937627E0,1.387000483E0,-8.122321947E-1,3.998244088E0
5.142703083E0,7.581546008E0,1.925636926E0,-1.060350312E0,7.893811515E0
5.152698083E0,1.164970361E1,2.922979543E0,-1.338443889E0,1.208514939E1
5.162694083E0,1.556104533E1,4.184220158E0,-1.586969411E0,1.619173561E1
5.172690083E0,1.902333257E1,5.307450405E0,-1.723811799E0,1.982492722E1
5.182685083E0,2.218698614E1,6.164777935E0,-1.649147679E0,2.308650102E1
5.192681083E0,2.510682836E1,6.670424094E0,-1.501539398E0,2.602118384E1
5.202676083E0,2.711293555E1,6.774731405E0,-1.484324903E0,2.798591574E1
5.212672083E0,2.786509096E1,6.697508397E0,-1.671839554E0,2.870740254E1
5.222668083E0,2.722862388E1,6.531503606E0,-1.661564827E0,2.805029938E1
5.232663083E0,2.528521756E1,6.269970514E0,-1.291997116E0,2.608302156E1
5.242659083E0,2.269123833E1,5.768121536E0,-9.269064724E-1,2.343123297E1
5.252654083E0,1.994672604E1,4.915886346E0,-5.519010707E-1,2.055097110E1
5.262650083E0,1.729682287E1,4.157241983E0,1.361823834E-2,1.778940493E1
5.272645083E0,1.502465451E1,3.750191573E0,5.814799420E-1,1.549652538E1
5.282641083E0,1.297938735E1,3.538846595E0,7.076335466E-1,1.347177332E1
5.292637083E0,1.121624952E1,3.318204543E0,5.369615443E-1,1.170910169E1
5.302632083E0,9.679731052E0,3.136206155E0,3.001913738E-1,1.017954307E1
5.312628083E0,8.352513671E0,2.995441455E0,5.124616742E-2,8.873543841E0
5.322623083E0,7.184957437E0,2.792375549E0,-1.543384083E-1,7.710045066E0
5.332619083E0,6.193352108E0,2.315512893E0,-3.226656954E-1,6.619918689E0
5.342614083E0,5.108797685E0,1.634724791E0,-4.589502589E-1,5.383565200E0
5.352610083E0,3.700630866E0,9.014485726E-1,-4.659155353E-1,3.837232808E0
5.362606083E0,1.922208996E0,1.354729700E-1,-4.601150608E-1,1.981147702E0
5.372601083E0,-2.040830290E-1,-6.035481378E-1,-6.501273501E-1,9.102668888E-1
5.382597083E0,-2.301399761E0,-1.294016891E0,-9.028638911E-1,2.790355494E0
5.392592083E0,-4.338866149E0,-2.035374838E0,-1.205554365E0,4.941848997E0
5.402588083E0,-6.235193029E0,-2.789547544E0,-1.596219707E0,7.014779038E0
5.412583083E0,-8.032366335E0,-3.559781673E0,-1.932156279E0,8.995786924E0
5.422579083E0,-9.719116142E0,-4.391984010E0,-2.098446414E0,1.086987670E1
5.432575083E0,-1.122008880E1,-5.190870373E0,-2.161916771E0,1.255027538E1
5.442570083E0,-1.249171436E1,-5.724848632E0,-2.183873066E0,1.391352296E1
5.452566083E0,-1.345391463E1,-5.810312705E0,-2.169495932E0,1.481466386E1
5.462561083E0,-1.413786578E1,-5.630018488E0,-2.029210703E0,1.535233054E1
5.472557083E0,-1.466035192E1,-5.334122479E0,-1.892887694E0,1.571501845E1
5.482552083E0,-1.520060424E1,-5.063650163E0,-1.863550898E0,1.612984018E1
5.492548083E0,-1.555222656E1,-4.838192053E0,-1.838128374E0,1.639080746E1
5.502544083E0,-1.562567811E1,-4.632377663E0,-1.763330206E0,1.639298852E1
5.512539083E0,-1.556095645E1,-4.445681622E0,-1.685251751E0,1.627106401E1
5.522535083E0,-1.529042449E1,-4.304698236E0,-1.592854049E0,1.596448221E1
5.532530083E0,-1.474261406E1,-4.200017289E0,-1.466538988E0,1.539920619E1
5.542526083E0,-1.403449636E1,-4.100413186E0,-1.354322149E0,1.468382324E1
5.552521083E0,-1.322285255E1,-3.990444016E0,-1.189050599E0,1.386294753E1
5.562517083E0,-1.256921336E1,-3.837292867E0,-1.037056906E0,1.318277012E1
5.572513083E0,-1.199206511E1,-3.621893137E0,-9.149676275E-1,1.256044988E1
5.582508083E0,-1.136830402E1,-3.365823390E0,-7.528956735E-1,1.187998128E1
5.592504083E0,-1.080298352E1,-3.130465944E0,-5.264026058E-1,1.125972334E1
5.602498750E0,-1.034801284E1,-2.868689315E0,-2.654554228E-1,1.074156481E1
5.612494750E0,-9.802044863E0,-2.565829857E0,-5.909316737E-2,1.013247543E1
5.622489750E0,-9.174547992E0,-2.238836893E0,1.034840226E-1,9.444333244E0
5.632485750E0,-8.678714045E0,-1.987754091E0,1.917465369E-1,8.905504507E0
5.642481750E0,-8.256240435E0,-1.730896140E0,3.994045901E-1,8.445178008E0
5.652476750E0,-7.749719532E0,-1.424215233E0,5.945531467E-1,7.901900739E0
5.662472750E0,-7.201519091E0,-1.097193472E0,5.880323318E-1,7.308316684E0
5.672467750E0,-6.415777268E0,-6.136894025E-1,3.789381659E-1,6.456191351E0
5.682463750E0,-5.561134779E0,-2.564764202E-2,1.019988664E-1,5.562129233E0
5.692458750E0,-4.740605532E0,5.718078433E-1,4.983238377E-2,4.775226517E0
5.702454750E0,-3.621781747E0,1.028744942E0,1.473311964E-1,3.767933872E0
5.712450750E0,-1.902824891E0,1.227179561E0,4.067330517E-2,2.264589711E0
5.722445750E0,2.329764605E-1,1.197084673E0,-1.987106073E-1,1.235627634E0
5.732441750E0,2.777523914E0,1.151193386E0,-4.356981115E-1,3.038045120E0
5.742436750E0,6.040486595E0,1.243063961E0,-5.707956903E-1,6.193423450E0
5.752432750E0,1.004340448E1,1.475822613E0,-7.855722535E-1,1.018160840E1
5.762427750E0,1.470292901E1,1.835596091E0,-1.227511829E0,1.486782835E1
5.772423750E0,1.973437855E1,2.392662957E0,-1.946334608E0,1.997395182E1
5.782419750E0,2.404686382E1,3.206614233E0,-2.969266394E0,2.444075648E1
5.792414750E0,2.714135302E1,4.156854020E0,-3.716523013E0,2.770821218E1
5.802410750E0,2.907783390E1,4.874993843E0,-3.885740265E0,2.973861070E1
5.812405750E0,2.950903798E1,4.838017806E0,-3.967846867E0,3.016510480E1
5.822401750E0,2.801568483E1,4.134039354E0,-4.068871551E0,2.860986882E1
5.832396750E0,2.504311710E1,3.120595844E0,-3.651141787E0,2.549954252E1
5.842392750E0,2.126598185E1,1.984526866E0,-2.555013385E0,2.151065839E1
5.852388750E0,1.801040888E1,9.012376343E-1,-8.323756333E-1,1.805214410E1
5.862383750E0,1.632800589E1,3.222309914E-1,6.293638873E-1,1.634330775E1
5.872379750E0,1.553382771E1,4.308417065E-1,1.220272976E0,1.558763914E1
5.882374750E0,1.454450455E1,9.014476955E-1,1.390838596E0,1.463863561E1
5.892370750E0,1.321377416E1,1.217787471E0,1.639606047E0,1.337068218E1
5.902365750E0,1.167630961E1,1.222804528E0,1.844428164E0,1.188416477E1
5.912361750E0,9.711636969E0,9.397013497E-1,1.867606527E0,9.934127308E0
5.922356750E0,7.562391114E0,7.363705650E-1,1.392888629E0,7.724774411E0
5.932352750E0,5.521518724E0,7.434772709E-1,4.867583375E-1,5.592571962E0
5.942348750E0,3.408533208E0,9.335407233E-1,-4.118218835E-1,3.557976135E0
5.952343750E0,1.180694343E0,1.233581531E0,-9.169148965E-1,1.938168066E0
5.962339750E0,-1.015058511E0,1.394234951E0,-1.040944573E0,2.014398293E0
5.972334750E0,-3.090469235E0,1.190684018E0,-9.300649922E-1,3.440021717E0
5.982330750E0,-4.846242499E0,6.264247844E-1,-7.824549566E-1,4.948808961E0
5.992325750E0,-6.234875525E0,-4.397623649E-1,-9.170248242E-1,6.317277759E0
6.002321750E0,-7.410262350E0,-1.819368459E0,-8.099234216E-1,7.673204392E0
6.012317750E0,-8.409148048E0,-3.032757801E0,-5.288958585E-1,8.954949558E0
6.022312750E0,-9.129461281E0,-3.928988026E0,-2.695766683E-1,9.942669751E0
6.032308750E0,-9.853253024E0,-4.570799758E0,5.776815176E-2,1.086195851E1
6.042303750E0,-1.065454844E1,-4.901606861E0,4.114451766E-1,1.173517956E1
6.052299750E0,-1.145400081E1,-4.955205363E0,6.764689104E-1,1.249823208E1
6.062294750E0,-1.233976394E1,-4.813404829E0,8.053906600E-1,1.326978878E1
6.072290750E0,-1.320925075E1,-4.502586140E0,8.434505522E-1,1.398102272E1
6.082286750E0,-1.392670528E1,-4.122852461E0,7.766460402E-1,1.454490328E1
6.092281750E0,-1.447581380E1,-3.817202126E0,7.526174922E-1,1.498955137E1
6.102277750E0,-1.483845109E1,-3.564107736E0,8.601138011E-1,1.528470774E1
6.112272750E0,-1.492837542E1,-3.316421435E0,1.003089918E0,1.532518298E1
6.122268750E0,-1.467720594E1,-3.050863704E0,1.105490963E0,1.503164175E1
6.132263750E0,-1.412659586E1,-2.819871789E0,1.184608469E0,1.445391589E1
6.142259750E0,-1.347430270E1,-2.699553047E0,1.216315581E0,1.379579079E1
6.152255750E0,-1.279076085E1,-2.647807528E0,1.242305285E0,1.312089061E1
6.162250750E0,-1.211351645E1,-2.639094884E0,1.298304215E0,1.246546014E1
6.172246750E0,-1.156945760E1,-2.655741907E0,1.418926427E0,1.195485953E1
6.182241750E0,-1.123031909E1,-2.681847386E0,1.577173132E0,1.165331915E1
6.192237750E0,-1.100513697E1,-2.700759620E0,1.726769175E0,1.146249859E1
6.202232750E0,-1.076073855E1,-2.675803119E0,1.876619717E0,1.124611569E1
6.212228750E0,-1.049014228E1,-2.615340278E0,1.967029073E0,1.098873483E1
6.222223750E0,-1.015999562E1,-2.509539589E0,2.010759230E0,1.065675619E1
6.232219750E0,-9.783170051E0,-2.314377364E0,2.075010482E0,1.026510727E1
6.242215750E0,-9.408319674E0,-2.081097141E0,2.190179873E0,9.881514675E0
6.252210750E0,-9.063038666E0,-1.834142181E0,2.227436138E0,9.511268009E0
6.262206750E0,-8.534633389E0,-1.539944787E0,2.144377463E0,8.933630378E0
6.272201750E0,-7.797507656E0,-1.151765536E0,1.939746111E0,8.117284304E0
6.282197750E0,-7.033006428E0,-7.377788669E-1,1.552750044E0,7.240064211E0
6.292192750E0,-6.123575529E0,-3.756710342E-1,1.139473958E0,6.240008565E0
6.302188750E0,-4.577118552E0,-4.809481055E-2,7.057706237E-1,4.631461920E0
6.312184750E0,-2.384224986E0,3.139203438E-1,1.777077010E-1,2.411359533E0
6.322179750E0,2.280314702E-1,4.849743520E-1,-4.270549035E-1,6.852549628E-1
6.332175750E0,2.925432158E0,4.069676712E-1,-9.089675072E-1,3.090307092E0
6.342170750E0,5.693153799E0,7.001419477E-1,-1.288601492E0,5.879004400E0
6.352166750E0,8.837402215E0,1.793504032E0,-1.896590005E0,9.214846080E0
6.362161750E0,1.221178944E1,3.416194522E0,-2.735593823E0,1.297234211E1
6.372157750E0,1.587577639E1,4.589838292E0,-3.477021060E0,1.688776382E1
6.382152750E0,1.917710382E1,4.880890176E0,-4.228670692E0,2.023526762E1
6.392148750E0,2.164481594E1,4.722811285E0,-5.006191914E0,2.271266080E1
6.402144750E0,2.342804831E1,4.467781174E0,-5.638143779E0,2.450761477E1
6.412139750E0,2.465398022E1,4.211357963E0,-5.789543395E0,2.567241885E1
6.422135750E0,2.536719318E1,3.908405827E0,-5.630632446E0,2.627687477E1
6.432130750E0,2.479907303E1,3.599201847E0,-5.328689246E0,2.561919605E1
6.442126750E0,2.279545442E1,3.288823162E0,-4.654992355E0,2.349719247E1
6.452121750E0,2.010785893E1,2.788918383E0,-3.630796984E0,2.062248150E1
6.462117750E0,1.728589910E1,2.064980607E0,-2.586664363E0,1.759992287E1
6.472113750E0,1.508799155E1,1.296921495E0,-1.918907804E0,1.526472081E1
6.482108750E0,1.372141656E1,7.907777372E-1,-1.559551963E0,1.383238245E1
6.492104750E0,1.289211649E1,7.933548975E-1,-1.461402794E0,1.299891448E1
6.502099750E0,1.217267624E1,1.157760101E0,-1.562687240E0,1.232706156E1
6.512095750E0,1.151205431E1,1.581661309E0,-1.493190597E0,1.171574433E1
6.522090750E0,1.071495369E1,1.971478804E0,-1.127738230E0,1.095302491E1
6.532086750E0,9.736784089E0,2.188629191E0,-6.792639526E-1,1.000282268E1
6.542081750E0,8.404784271E0,2.273153617E0,-4.450293906E-1,8.718123488E0
6.552077750E0,6.763022355E0,2.208322613E0,-3.616421020E-1,7.123618824E0
6.562073750E0,5.122853222E0,2.095810782E0,-4.367318992E-1,5.552187201E0
6.572068750E0,3.503915328E0,1.947107902E0,-5.976121907E-1,4.052874553E0
6.582064750E0,1.872540407E0,1.657185116E0,-7.071786332E-1,2.598609571E0
6.592059750E0,9.282630265E-2,1.182738237E0,-7.445541818E-1,1.400659627E0
6.602056208E0,-1.761332213E0,6.474431857E-1,-6.902114752E-1,1.999466359E0
6.612051208E0,-3.466004321E0,-6.889774203E-3,-4.776754189E-1,3.498772246E0
6.622047208E0,-4.892262425E0,-7.998684034E-1,-2.567464884E-1,4.963863401E0
6.632042208E0,-6.040687155E0,-1.659591830E0,-9.809288979E-2,6.265282799E0
6.642038208E0,-7.026148814E0,-2.432177417E0,2.097980976E-3,7.435204002E0
6.652034208E0,-7.816601738E0,-3.050402066E0,7.955239221E-2,8.391099099E0
6.662029208E0,-8.401839613E0,-3.568923210E0,1.738717083E-1,9.130079580E0
6.672025208E0,-8.841611626E0,-4.003331572E0,2.386960606E-1,9.708642316E0
6.682020208E0,-9.331456270E0,-4.397231301E0,2.574388719E-1,1.031881747E1
6.692016208E0,-9.906528175E0,-4.690780530E0,2.699286707E-1,1.096428675E1
6.702011208E0,-1.046319012E1,-4.796930591E0,3.622947244E-1,1.151608215E1
6.712007208E0,-1.116347138E1,-4.741085004E0,5.016816013E-1,1.213889059E1
6.722002208E0,-1.200775085E1,-4.600317965E0,6.625796536E-1,1.287586959E1
6.731998208E0,-1.285651162E1,-4.433751256E0,7.465059093E-1,1.362003349E1
6.741994208E0,-1.362645778E1,-4.258118147E0,7.671311586E-1,1.429686721E1
6.751989208E0,-1.417950965E1,-4.047232467E0,8.034952120E-1,1.476767379E1
6.761985208E0,-1.446824633E1,-3.852896747E0,8.013443868E-1,1.499390270E1
6.771980208E0,-1.447022386E1,-3.698038503E0,6.635629360E-1,1.495002284E1
6.781976208E0,-1.413507900E1,-3.575763868E0,4.344107739E-1,1.458681796E1
6.791971208E0,-1.368303310E1,-3.483944163E0,2.014295626E-1,1.412104229E1
6.801967208E0,-1.323866926E1,-3.394614788E0,6.853879608E-2,1.366713105E1
6.811962208E0,-1.275392456E1,-3.307100388E0,4.091764569E-2,1.317578001E1
6.821958208E0,-1.225515824E1,-3.227508966E0,1.123625080E-1,1.267352922E1
6.831954208E0,-1.178570283E1,-3.162659836E0,2.091945188E-1,1.220446520E1
6.841949208E0,-1.135754982E1,-3.182894126E0,3.148268084E-1,1.179931646E1
6.851945208E0,-1.090855266E1,-3.235975734E0,4.180221248E-1,1.138607933E1
6.861940208E0,-1.055788578E1,-3.228306234E0,5.671856193E-1,1.105498136E1
6.871936208E0,-1.026368312E1,-3.123651599E0,7.592983747E-1,1.075532076E1
6.881931208E0,-9.914406713E0,-2.985155911E0,9.487037230E-1,1.039743502E1
6.891927208E0,-9.559256190E0,-2.735024012E0,1.123170605E0,1.000606054E1
6.901922208E0,-9.069136142E0,-2.409409821E0,1.179858191E0,9.457618696E0
6.911918208E0,-8.373375367E0,-2.033414267E0,1.150843430E0,8.693251936E0
6.921914208E0,-7.334057343E0,-1.565927329E0,1.015137594E0,7.567762539E0
6.931909208E0,-5.945223173E0,-9.840679756E-1,8.010195740E-1,6.079120061E0
6.941905208E0,-4.266054280E0,-4.284933186E-1,6.889388287E-1,4.342517974E0
6.951900208E0,-2.258767712E0,8.469896525E-2,5.207484944E-1,2.319565581E0
6.961896208E0,-2.830695570E-2,4.763989717E-1,2.344699855E-1,5.317268453E-1
6.971891208E0,2.147926723E0,6.561634308E-1,-7.204354405E-2,2.247071411E0
6.981887208E0,4.478556131E0,8.664775452E-1,-5.333547990E-1,4.592680665E0
6.991882208E0,6.729656389E0,1.476878035E0,-1.351447073E0,7.021100557E0
7.001878208E0,8.998572528E0,2.296066224E0,-2.116153538E0,9.524932202E0
7.011874208E0,1.178463747E1,3.031172913E0,-2.668397036E0,1.245736859E1
7.021869208E0,1.466381114E1,3.689462391E0,-3.134408137E0,1.544227976E1
7.031865208E0,1.715807429E1,4.433309791E0,-3.616371903E0,1.808678785E1
7.041860208E0,1.896645671E1,5.220523358E0,-4.158211159E0,2.010649308E1
7.051856208E0,2.009459744E1,5.620480510E0,-4.451576493E0,2.133539737E1
7.061851208E0,2.034211944E1,5.435431337E0,-4.526593931E0,2.153684726E1
7.071847208E0,1.998650815E1,4.775723324E0,-4.217281193E0,2.097745223E1
7.081842208E0,1.898364050E1,3.981893341E0,-3.708593896E0,1.974810751E1
7.091838208E0,1.718104917E1,3.362924341E0,-3.023480316E0,1.776623606E1
7.101834208E0,1.512084588E1,2.897611105E0,-2.239884422E0,1.555805941E1
7.111829208E0,1.297697596E1,2.539844246E0,-1.589052190E0,1.331832575E1
7.121825208E0,1.090563957E1,2.192938589E0,-9.225359711E-1,1.116212465E1
7.131820208E0,9.538771639E0,1.789149756E0,-2.841404745E-1,9.709271705E0
7.141816208E0,9.074947105E0,1.465003217E0,1.733958180E-1,9.194072302E0
7.151811208E0,9.061051197E0,1.404261172E0,1.639350231E-1,9.170685521E0
7.161807208E0,9.503933344E0,1.529366443E0,8.028241709E-2,9.626533955E0
7.171802208E0,1.030258114E1,1.683796671E0,1.825618402E-1,1.044086578E1
7.181798208E0,1.093494465E1,1.927367409E0,1.514826465E-1,1.110453541E1
7.191793208E0,1.136471149E1,2.356626713E0,-3.550920510E-1,1.161190971E1
7.201789208E0,1.153300254E1,2.920380163E0,-1.128131382E0,1.195037440E1
7.211785208E0,1.146230620E1,3.470344417E0,-1.741444809E0,1.210208180E1
7.221780208E0,1.070814870E1,4.089314878E0,-2.278626172E0,1.168670535E1
7.231776208E0,9.319336746E0,4.570503304E0,-2.501844653E0,1.067702039E1
7.241771208E0,7.626748493E0,4.595399287E0,-2.368614382E0,9.213865708E0
7.251767208E0,5.808875459E0,4.165796167E0,-2.088587863E0,7.447086079E0
7.261762208E0,3.899810420E0,3.373947512E0,-1.745431148E0,5.444131980E0
7.271758208E0,1.837286959E0,2.211335976E0,-1.476929344E0,3.232174262E0
7.281753208E0,-4.274028128E-1,8.174886954E-1,-1.190109237E0,1.505762574E0
7.291749208E0,-2.624355515E0,-5.701359782E-1,-7.781777184E-1,2.796043180E0
7.301745208E0,-4.585559008E0,-1.860757683E0,-3.406703322E-1,4.960426075E0
7.311740208E0,-6.552968150E0,-3.040251592E0,4.473119974E-2,7.224023962E0
7.321736208E0,-8.364139690E0,-4.165366104E0,3.611637998E-1,9.350911550E0
7.331731208E0,-1.009919159E1,-5.118087741E0,4.812749648E-1,1.133226008E1
7.341727208E0,-1.146164429E1,-5.823720371E0,5.545360453E-1,1.286827569E1
7.351722208E0,-1.238471382E1,-6.258942665E0,4.710728891E-1,1.388443047E1
7.361718208E0,-1.291272091E1,-6.378410051E0,6.314830644E-1,1.441600662E1
7.371713208E0,-1.316349746E1,-6.207043948E0,7.954750979E-1,1.457524753E1
7.381709208E0,-1.352261473E1,-5.872691971E0,6.327236974E-1,1.475635319E1
7.391704208E0,-1.389388135E1,-5.596647259E0,7.955956236E-1,1.499984573E1
7.401700208E0,-1.428632074E1,-5.380120186E0,1.095473660E0,1.530505524E1
7.411696208E0,-1.452988066E1,-5.205436372E0,1.363860712E0,1.549432528E1
7.421691208E0,-1.448380811E1,-5.071025257E0,1.552136524E0,1.542417331E1
7.431687208E0,-1.423830691E1,-4.985626672E0,1.624361186E0,1.517314754E1
7.441682208E0,-1.377382281E1,-4.919254927E0,1.624261637E0,1.471582447E1
7.451678208E0,-1.310575036E1,-4.824543190E0,1.617672118E0,1.405893924E1
7.461673208E0,-1.238886886E1,-4.645091849E0,1.635901251E0,1.333180868E1
7.471669208E0,-1.173997176E1,-4.385694452E0,1.711248326E0,1.264870047E1
7.481664208E0,-1.102772710E1,-4.035612880E0,1.694496199E0,1.186457979E1
7.491660208E0,-1.027178269E1,-3.683835031E0,1.530526092E0,1.101919553E1
7.501656208E0,-9.616094635E0,-3.389004385E0,1.225746116E0,1.026922978E1
7.511651208E0,-8.965430510E0,-3.148319247E0,1.015456706E0,9.556255053E0
7.521647208E0,-8.259946400E0,-2.871719050E0,9.239183991E-1,8.793583458E0
7.531642208E0,-7.762708536E0,-2.556079040E0,8.399582295E-1,8.215760081E0
7.541638208E0,-7.441546708E0,-2.259365005E0,8.203384821E-1,7.820121666E0
7.551633208E0,-7.221388514E0,-1.972132231E0,8.511579864E-1,7.534071112E0
7.561629208E0,-6.864478564E0,-1.720774463E0,9.859085329E-1,7.145218425E0
7.571624208E0,-6.427590982E0,-1.559442767E0,1.169995254E0,6.716745973E0
7.581620208E0,-5.981236174E0,-1.351428947E0,1.293365511E0,6.266924342E0
7.591615208E0,-5.493977169E0,-9.765545958E-1,1.249704351E0,5.718321867E0
7.601611083E0,-4.923523394E0,-4.679032597E-1,1.090931543E0,5.064597487E0
7.611607083E0,-4.345829013E0,9.336629301E-2,9.021071152E-1,4.439453156E0
7.621602083E0,-3.725835289E0,5.378350818E-1,7.232000041E-1,3.833292765E0
7.631598083E0,-2.700282195E0,8.406670582E-1,5.108760555E-1,2.873889243E0
7.641593083E0,-9.944353813E-1,1.105567854E0,3.448524070E-1,1.526468208E0
7.651589083E0,1.381731557E0,1.302968393E0,1.764315462E-1,1.907363840E0
7.661584083E0,4.228768340E0,1.531867882E0,5.792032555E-2,4.498050205E0
7.671580083E0,7.429566933E0,1.888516755E0,-1.143738770E-1,7.666683881E0
7.681575083E0,1.080851732E1,2.523028238E0,-4.272487387E-1,1.110730659E1
7.691571083E0,1.389321360E1,3.471488717E0,-8.797169571E-1,1.434735237E1
7.701566083E0,1.636952814E1,4.558343142E0,-1.583456258E0,1.706596840E1
7.711562083E0,1.796125952E1,5.385882617E0,-2.215718318E0,1.888184268E1
7.721558083E0,1.836200897E1,5.596016929E0,-2.632595412E0,1.937548290E1
7.731553083E0,1.784041629E1,5.088000308E0,-2.926780525E0,1.878122053E1
7.741549083E0,1.689716100E1,4.055778758E0,-2.864796531E0,1.761165666E1
7.751544083E0,1.558213506E1,3.083275698E0,-2.367472129E0,1.605971502E1
7.761540083E0,1.364364976E1,2.461149201E0,-1.626207883E0,1.395890347E1
7.771535083E0,1.143977454E1,1.942861654E0,-8.956741548E-1,1.163810058E1
7.781531083E0,9.331051058E0,1.487181121E0,-4.140471876E-1,9.457888591E0
7.791526083E0,7.513041199E0,1.203787044E0,-3.167142896E-1,7.615457914E0
7.801522083E0,6.012165021E0,1.131348228E0,-4.824455774E-1,6.136679134E0
7.811517083E0,4.958047110E0,1.209691270E0,-6.771507689E-1,5.148214960E0
7.821513083E0,4.568348898E0,1.263606107E0,-8.771781691E-1,4.820368615E0
7.831509083E0,4.857170945E0,1.316964873E0,-1.118147846E0,5.155265335E0
7.841504083E0,5.682380304E0,1.493775027E0,-1.429365900E0,6.046808797E0
7.851500083E0,6.948433471E0,1.889725666E0,-1.685455234E0,7.395441173E0
7.861495083E0,8.681364588E0,2.352876017E0,-1.799605747E0,9.172823856E0
7.871491083E0,1.050446445E1,2.664689901E0,-1.907014275E0,1.100368343E1
7.881486083E0,1.166941692E1,2.969640324E0,-2.017623861E0,1.220921213E1
7.891482083E0,1.227812142E1,3.477473634E0,-2.002645633E0,1.291726279E1
7.901477083E0,1.232588031E1,4.007200382E0,-1.792913024E0,1.308432335E1
7.911473083E0,1.160260429E1,4.422345969E0,-1.517226162E0,1.250917845E1
7.921468083E0,1.047131424E1,4.609634626E0,-1.123082896E0,1.149601968E1
7.931464083E0,9.361540194E0,4.421735812E0,-4.352410054E-1,1.036241367E1
7.941459083E0,8.281631384E0,3.860237634E0,2.977039683E-1,9.141962624E0
7.951455083E0,7.185686000E0,3.121456554E0,8.500785904E-1,7.880368514E0
7.961451083E0,5.930892817E0,2.411218073E0,1.342147661E0,6.541469448E0
7.971446083E0,4.177544977E0,1.695582612E0,1.778723001E0,4.846724455E0
7.981442083E0,1.859486498E0,8.928864947E-1,2.019871384E0,2.887008268E0
7.991437083E0,-7.732165021E-1,-5.670542032E-2,2.095214074E0,2.234054896E0
8.001433083E0,-3.499738078E0,-1.133749095E0,1.984949620E0,4.180140980E0
8.011428083E0,-5.891504803E0,-2.282763516E0,1.778042386E0,6.563708771E0
8.021424083E0,-7.928389392E0,-3.512511905E0,1.494224239E0,8.799420680E0
8.031419083E0,-9.612588644E0,-4.757710977E0,1.138471452E0,1.078581436E1
8.041415083E0,-1.086219476E1,-5.877161583E0,8.115549409E-1,1.237687056E1
8.051410083E0,-1.159775812E1,-6.738346521E0,6.861448829E-1,1.343071487E1
8.061406083E0,-1.222970180E1,-7.255119932E0,7.586000709E-1,1.424000862E1
8.071402083E0,-1.297918153E1,-7.375475510E0,9.637311403E-1,1.495946422E1
8.081397083E0,-1.372174517E1,-7.209622747E0,1.239539552E0,1.554996492E1
8.091393083E0,-1.438784361E1,-6.911431121E0,1.423219453E0,1.602508900E1
8.101388083E0,-1.503470587E1,-6.692644683E0,1.387332459E0,1.651540387E1
8.111384083E0,-1.520208008E1,-6.492619622E0,1.450883507E0,1.659404747E1
8.121379083E0,-1.504912277E1,-6.251027874E0,1.444619970E0,1.635965685E1
8.131375083E0,-1.457626428E1,-5.972361270E0,1.420487487E0,1.581626898E1
8.141370083E0,-1.390623769E1,-5.661821494E0,1.356204222E0,1.507577392E1
8.151366083E0,-1.327623295E1,-5.337112745E0,1.179011368E0,1.435733964E1
8.161361083E0,-1.251671823E1,-4.919442038E0,9.829401939E-1,1.348463261E1
8.171357083E0,-1.164389031E1,-4.437990487E0,8.507511663E-1,1.248998474E1
8.181352083E0,-1.090635527E1,-4.001756332E0,7.342258063E-1,1.164052089E1
8.191348083E0,-1.025329847E1,-3.745719038E0,7.679781277E-1,1.094304944E1
8.201344083E0,-9.651037595E0,-3.614370402E0,9.295400584E-1,1.034747529E1
8.211339083E0,-9.119195910E0,-3.466680259E0,1.102590598E0,9.818009578E0
8.221335083E0,-8.649283839E0,-3.320718554E0,1.279292286E0,9.352746730E0
8.231330083E0,-8.140776637E0,-3.120759566E0,1.412186780E0,8.832081069E0
8.241326083E0,-7.682957777E0,-2.892007426E0,1.494899300E0,8.344235800E0
8.251321083E0,-7.395182966E0,-2.773783450E0,1.664091847E0,8.071666953E0
8.261317083E0,-7.112458395E0,-2.725507961E0,1.851703269E0,7.838639108E0
8.271312083E0,-6.764263135E0,-2.570663165E0,1.939619519E0,7.491707999E0
8.281308083E0,-6.388549123E0,-2.204761074E0,1.884730536E0,7.016177057E0
8.291303083E0,-5.886848665E0,-1.598511523E0,1.645670633E0,6.318105580E0
8.301299083E0,-5.389928890E0,-9.600844511E-1,1.158461913E0,5.595992280E0
8.311295083E0,-4.835932689E0,-4.787238246E-1,6.705202456E-1,4.905610958E0
8.321290083E0,-3.933348294E0,-1.184470475E-1,3.220984058E-1,3.948291516E0
8.331286083E0,-2.637311776E0,1.265129891E-1,2.914828232E-1,2.656384982E0
8.341281083E0,-7.572898561E-1,2.537080559E-1,4.750511885E-1,9.292627914E-1
8.351277083E0,1.866414279E0,6.389664772E-1,4.932357368E-1,2.033485164E0
8.361272083E0,5.217769319E0,1.581771529E0,1.216872820E-1,5.453615831E0
8.371268083E0,8.987065208E0,2.776617888E0,-6.442671244E-1,9.428256895E0
8.381263083E0,1.280331599E1,3.565016393E0,-1.703662002E0,1.339913081E1
8.391259083E0,1.579730325E1,3.758189687E0,-2.999911359E0,1.651297210E1
8.401254083E0,1.804504428E1,3.905025259E0,-4.115901875E0,1.891595870E1
8.411250083E0,1.959313438E1,4.270621541E0,-4.721185175E0,2.060142502E1
8.421245083E0,2.065474199E1,4.511333867E0,-4.618479416E0,2.164025998E1
8.431241083E0,2.094625610E1,4.537292581E0,-4.222933696E0,2.184412593E1
8.441236083E0,1.989390229E1,4.314043841E0,-3.708457364E0,2.069132617E1
8.451232083E0,1.789592274E1,3.826078784E0,-2.963540801E0,1.853875680E1
8.461228083E0,1.524781115E1,3.070124140E0,-2.155630868E0,1.570248871E1
8.471223083E0,1.218621956E1,2.265600476E0,-1.417885330E0,1.247586837E1
8.481219083E0,9.450176382E0,1.666673100E0,-8.961243904E-1,9.637773176E0
8.491214083E0,7.449056287E0,1.247812192E0,-6.384808660E-1,7.579784473E0
8.501210083E0,6.480277319E0,1.027790531E0,-6.009977286E-1,6.588743869E0
8.511205083E0,6.590948154E0,9.819448516E-1,-7.982243856E-1,6.711331867E0
8.521201083E0,7.456960554E0,1.020545977E0,-1.173893958E0,7.617466889E0
8.531196083E0,8.938233941E0,1.165111221E0,-1.561543379E0,9.148110617E0
8.541192083E0,1.043990885E1,1.460600995E0,-1.788877276E0,1.069229320E1
8.551187083E0,1.172817208E1,1.787178806E0,-1.843337073E0,1.200591187E1
8.561183083E0,1.241460128E1,2.084125414E0,-1.752925086E0,1.270978560E1
8.571178083E0,1.226926874E1,2.342644413E0,-1.767334818E0,1.261532443E1
8.581174083E0,1.142996057E1,2.633072544E0,-1.886712888E0,1.188009912E1
8.591170083E0,9.987582278E0,2.967720683E0,-2.003235033E0,1.061000077E1
8.601168833E0,8.217168170E0,3.277620481E0,-2.074254144E0,9.086648393E0
8.611164833E0,6.630252553E0,3.470237120E0,-2.068958906E0,7.764237602E0
8.621159833E0,5.271208777E0,3.479827139E0,-1.728574941E0,6.548496791E0
8.631155833E0,4.103903389E0,3.275008822E0,-8.800047863E-1,5.323731233E0
8.641150833E0,2.893163713E0,2.875993949E0,-4.910959482E-2,4.079724160E0
8.651146833E0,1.379430678E0,2.327007789E0,5.561742890E-1,2.761724838E0
8.661141833E0,-3.577958035E-1,1.653133434E0,9.800589053E-1,1.954835913E0
8.671137833E0,-2.131720580E0,8.764302371E-1,1.193540676E0,2.595554264E0
8.681132833E0,-3.971267488E0,1.434683065E-1,1.210683542E0,4.154191047E0
8.691128833E0,-5.782571175E0,-6.245627385E-1,1.182034452E0,5.935100122E0
8.701123833E0,-7.450246781E0,-1.315570897E0,1.115340087E0,7.647279738E0
8.711119833E0,-8.926443615E0,-1.983946822E0,1.023607506E0,9.201370166E0
8.721114833E0,-1.020973905E1,-2.616562639E0,8.995146060E-1,1.057801012E1
8.731110833E0,-1.135979515E1,-3.078808717E0,7.300752334E-1,1.179224401E1
8.741106833E0,-1.235872295E1,-3.375068716E0,7.062373777E-1,1.283074016E1
8.751101833E0,-1.325298091E1,-3.520202748E0,8.629449499E-1,1.373965081E1
8.761097833E0,-1.394873408E1,-3.527327287E0,1.136948837E0,1.443266687E1
8.771092833E0,-1.462345014E1,-3.462774319E0,1.400479485E0,1.509296004E1
8.781088833E0,-1.512421154E1,-3.497958477E0,1.742119578E0,1.562089846E1
8.791083833E0,-1.523188685E1,-3.558697015E0,2.130921850E0,1.578656167E1
8.801079833E0,-1.516426029E1,-3.545532593E0,2.339533986E0,1.574798434E1
8.811074833E0,-1.504362521E1,-3.454208440E0,2.351001692E0,1.561311707E1
8.821070833E0,-1.476935104E1,-3.304708292E0,2.266280215E0,1.530329550E1
8.831065833E0,-1.435050563E1,-3.149305380E0,2.175101219E0,1.485214467E1
8.841061833E0,-1.384352162E1,-3.025623321E0,2.077163865E0,1.432173513E1
8.851056833E0,-1.327894021E1,-2.896678475E0,1.923128470E0,1.372659544E1
8.861052833E0,-1.263719660E1,-2.788689757E0,1.758737218E0,1.306019468E1
8.871048833E0,-1.204592849E1,-2.719026614E0,1.628405267E0,1.245589028E1
8.881043833E0,-1.152528071E1,-2.608018979E0,1.618892870E0,1.192705633E1
8.891039833E0,-1.093534577E1,-2.431494755E0,1.666893979E0,1.132574454E1
8.901034833E0,-1.029179654E1,-2.189424120E0,1.686970832E0,1.065647805E1
8.911030833E0,-9.654612583E0,-1.930230060E0,1.676654151E0,9.987417151E0
8.921025833E0,-8.808350909E0,-1.676751507E0,1.615762271E0,9.110940076E0
8.931021833E0,-7.831490504E0,-1.426707171E0,1.487576393E0,8.098186240E0
8.941016833E0,-6.801958964E0,-1.056226417E0,1.314280855E0,7.007823782E0
8.951012833E0,-5.661510422E0,-5.205096357E-1,1.081333923E0,5.787306247E0
8.961007833E0,-4.532760989E0,-3.716592595E-2,8.750206196E-1,4.616596644E0
8.971003833E0,-3.339305098E0,3.178584436E-1,6.217332709E-1,3.411531150E0
8.980998833E0,-1.908157552E0,4.904412062E-1,3.760275681E-1,2.005740400E0
8.990994833E0,-1.441718727E-1,5.026371825E-1,1.669862464E-1,5.489208254E-1
9.000989833E0,1.774997156E0,3.997532304E-1,2.485534430E-2,1.819625054E0
9.010985833E0,3.752470526E0,3.398580077E-1,-3.838375479E-2,3.768024923E0
9.020981833E0,5.756983759E0,4.006078009E-1,-2.323633799E-1,5.775581473E0
9.030976833E0,7.943777509E0,6.749826944E-1,-8.216808566E-1,8.014634252E0
9.040972833E0,1.040803918E1,1.261895065E0,-1.908971484E0,1.065663319E1
9.050967833E0,1.269969164E1,2.148528255E0,-3.312896149E0,1.329938428E1
9.060963833E0,1.433544320E1,3.119675784E0,-4.587707859E0,1.537154423E1
9.070958833E0,1.557032603E1,3.856500093E0,-5.345056772E0,1.690790577E1
9.080954833E0,1.634067564E1,4.263149384E0,-5.701583730E0,1.782414598E1
9.090949833E0,1.674667823E1,4.209473990E0,-5.569808539E0,1.814369505E1
9.100945833E0,1.677440105E1,3.571883363E0,-5.096268856E0,1.789164155E1
9.110940833E0,1.603460781E1,2.613208676E0,-4.611473867E0,1.688796017E1
9.120936833E0,1.432383297E1,1.795853589E0,-4.012235712E0,1.498316777E1
9.130931833E0,1.200139142E1,1.173797991E0,-3.036873071E0,1.243518378E1
9.140927833E0,9.424869633E0,8.100858280E-1,-1.929347277E0,9.654366243E0
9.150922833E0,7.137606685E0,6.986485688E-1,-9.710351166E-1,7.237157467E0
9.160918833E0,5.510713069E0,6.373801276E-1,-3.824970737E-1,5.560621905E0
9.170913833E0,4.647236023E0,5.579056495E-1,-2.133220683E-1,4.685463443E0
9.180909833E0,4.738382421E0,5.301664585E-1,-3.849597748E-1,4.783465111E0
9.190905833E0,5.706101874E0,6.363746989E-1,-7.510618405E-1,5.790394221E0
9.200900833E0,7.192291015E0,9.210422999E-1,-1.238796955E0,7.356085022E0
9.210896833E0,9.294463860E0,1.171433523E0,-1.719280207E0,9.524454807E0
9.220891833E0,1.141320596E1,1.477331779E0,-2.009713748E0,1.168258228E1
9.230887833E0,1.329268467E1,2.018605024E0,-2.148748549E0,1.361570242E1
9.240882833E0,1.466774046E1,2.616348046E0,-2.248065115E0,1.506790245E1
9.250878833E0,1.532511719E1,3.004604627E0,-2.391147505E0,1.579887503E1
9.260873833E0,1.491849597E1,3.063355403E0,-2.585609525E0,1.544768736E1
9.270869833E0,1.339888531E1,2.829612373E0,-2.627252226E0,1.394414888E1
9.280864833E0,1.130928924E1,2.466008238E0,-2.109242567E0,1.176563318E1
9.290860833E0,8.868635702E0,2.170499314E0,-1.449857759E0,9.244774416E0
9.300855833E0,6.531199551E0,1.840610224E0,-7.664365093E-1,6.828750873E0
9.310851833E0,4.552227539E0,1.446752303E0,-9.702153370E-2,4.777581080E0
9.320846833E0,2.834895625E0,1.078848710E0,4.173441401E-1,3.061817087E0
9.330842833E0,1.298992871E0,7.928385884E-1,7.183047152E-1,1.682836050E0
9.340837833E0,-4.362414640E-1,4.168263692E-1,9.163151184E-1,1.097125441E0
9.350833833E0,-2.494938506E0,-2.458274710E-1,1.277139487E0,2.813580382E0
9.360828833E0,-4.650992274E0,-1.108287394E0,1.532986601E0,5.020963852E0
9.370824833E0,-6.631306221E0,-1.957980799E0,1.573086952E0,7.091016399E0
9.380820833E0,-8.132888743E0,-2.627841625E0,1.485534107E0,8.675035590E0
9.390815833E0,-9.140245886E0,-3.040253931E0,1.270637383E0,9.716056720E0
9.400811833E0,-9.823467307E0,-3.207544233E0,9.779456484E-1,1.038003987E1
9.410806833E0,-1.038949883E1,-3.177249224E0,6.192131209E-1,1.088209647E1
9.420802833E0,-1.104707787E1,-3.006809027E0,3.218095534E-1,1.145348818E1
9.430797833E0,-1.190465859E1,-2.778722593E0,1.246203916E-1,1.222529041E1
9.440793833E0,-1.281502913E1,-2.567119752E0,2.769124389E-2,1.306965349E1
9.450788833E0,-1.356870015E1,-2.334102654E0,9.726828620E-2,1.376833759E1
9.460784833E0,-1.421087412E1,-2.126556904E0,2.832616380E-1,1.437189704E1
9.470779833E0,-1.470662211E1,-1.938092665E0,5.220148551E-1,1.484295916E1
9.480775833E0,-1.491682250E1,-1.753153420E0,8.502260864E-1,1.504353764E1
9.490770833E0,-1.485333460E1,-1.593079752E0,1.293296660E0,1.499440122E1
9.500766833E0,-1.450798050E1,-1.499864025E0,1.591305707E0,1.467185551E1
9.510761833E0,-1.402533261E1,-1.509316633E0,1.726589227E0,1.421158337E1
9.520757833E0,-1.343133736E1,-1.568120766E0,1.838155417E0,1.364692791E1
9.530752833E0,-1.281773990E1,-1.648398505E0,1.992280859E0,1.307596486E1
9.540748833E0,-1.225829936E1,-1.714260080E0,2.082628527E0,1.255157091E1
9.550743833E0,-1.183752904E1,-1.754057546E0,2.108227783E0,1.215106728E1
9.560739833E0,-1.142000393E1,-1.749824161E0,2.237165905E0,1.176789215E1
9.570735833E0,-1.093726366E1,-1.681932140E0,2.349750534E0,1.131255761E1
9.580730833E0,-1.044983274E1,-1.530255366E0,2.427497452E0,1.083667060E1
9.590726833E0,-9.891373361E0,-1.329613716E0,2.446681143E0,1.027586435E1
9.600719250E0,-9.205046484E0,-1.090551327E0,2.412404473E0,9.578198072E0
9.610715250E0,-8.513544236E0,-8.437921026E-1,2.328565487E0,8.866489598E0
9.620710250E0,-7.681517608E0,-6.314548516E-1,2.290260816E0,8.040506365E0
9.630706250E0,-6.766213766E0,-4.655987258E-1,2.108145922E0,7.102303156E0
9.640701250E0,-6.016901851E0,-2.761064002E-1,1.807734547E0,6.288660177E0
9.650697250E0,-5.596340865E0,-3.835919648E-3,1.584310390E0,5.816277607E0
9.660692250E0,-5.211127467E0,3.348387578E-1,1.410313771E0,5.408969533E0
9.670688250E0,-4.411134810E0,6.989062849E-1,1.228488314E0,4.632036685E0
9.680683250E0,-3.236341478E0,1.005012264E0,8.903031948E-1,3.503797310E0
9.690679250E0,-1.420396271E0,1.042964348E0,6.246709120E-1,1.869629360E0
9.700674250E0,9.235946095E-1,8.383403049E-1,5.054178259E-1,1.345841242E0
9.710670250E0,4.071755397E0,6.510254824E-1,3.224493849E-1,4.136060904E0
9.720665250E0,7.891065445E0,8.195257191E-1,-2.844661644E-1,7.938605498E0
9.730661250E0,1.142562194E1,1.279977433E0,-1.384204345E0,1.158012092E1
9.740656250E0,1.378076814E1,1.912759603E0,-2.816947596E0,1.419518980E1
9.750652250E0,1.502727757E1,2.638833221E0,-4.040944956E0,1.578327431E1
9.760647250E0,1.529494556E1,3.115078996E0,-4.787737306E0,1.632671141E1
9.770643250E0,1.523712478E1,3.088353712E0,-5.070866797E0,1.635303001E1
9.780639250E0,1.534729568E1,2.627776721E0,-5.158479137E0,1.640288396E1
9.790634250E0,1.521158999E1,1.931379184E0,-5.111226618E0,1.616314738E1
9.800630250E0,1.447939580E1,1.263926388E0,-4.723078795E0,1.528260076E1
9.810625250E0,1.313645993E1,9.101783194E-1,-3.979301270E0,1.375608385E1
9.820621250E0,1.161713345E1,6.621050790E-1,-3.165266232E0,1.205881765E1
9.830616250E0,9.887270955E0,3.806994934E-1,-2.598269917E0,1.023005697E1
9.840612250E0,8.082189290E0,1.638737735E-1,-2.231886015E0,8.386295578E0
9.850607250E0,6.678079269E0,1.272722501E-1,-1.949630391E0,6.958016931E0
9.860603250E0,5.754061906E0,2.310951188E-1,-1.773778596E0,6.025688664E0
9.870598250E0,5.609231637E0,3.900171778E-1,-1.792112102E0,5.901462424E0
9.880594250E0,6.121211500E0,4.466405909E-1,-2.007898772E0,6.457582793E0
9.890589250E0,6.869222994E0,5.388621452E-1,-2.338222017E0,7.276254473E0
9.900585250E0,7.862328719E0,7.911053275E-1,-2.659735848E0,8.337640872E0
9.910580250E0,9.235792313E0,1.033363804E0,-2.999125786E0,9.765370238E0
9.920576250E0,1.076584317E1,1.185317298E0,-3.428245926E0,1.136051172E1
9.930571250E0,1.241993628E1,1.245858199E0,-4.033505251E0,1.311777971E1
9.940567250E0,1.384274979E1,1.150606471E0,-4.739985727E0,1.467695751E1
9.950562250E0,1.435675981E1,1.042879417E0,-5.273278692E0,1.533008864E1
9.960558250E0,1.375332247E1,1.096913683E0,-5.040930222E0,1.468904613E1
9.970553250E0,1.245189365E1,9.875366901E-1,-3.726648052E0,1.303506003E1
9.980549250E0,1.057512103E1,5.932832046E-1,-2.148725452E0,1.080750623E1
9.990545250E0,8.148522443E0,7.570711702E-2,-6.899248154E-1,8.178028236E0
1.000054025E1,5.669844459E0,-3.499719366E-1,7.482611704E-1,5.729704296E0
1.001053625E1,3.251489859E0,-4.960204732E-1,2.003864193E0,3.851453533E0
1.002053125E1,1.005783657E0,-4.362319623E-1,2.840114264E0,3.044363337E0
1.003052725E1,-9.751945335E-1,-2.380449732E-1,3.386290984E0,3.531945132E0
1.004052225E1,-2.488290807E0,-5.004514933E-2,3.511462330E0,4.304005501E0
1.005051825E1,-3.634292450E0,-2.845796004E-2,3.127386800E0,4.794730406E0
1.006051325E1,-4.734686980E0,-1.993733892E-1,2.344614047E0,5.287175577E0
1.007050925E1,-6.075859326E0,-6.693253671E-1,1.638289254E0,6.328353236E0
1.008050425E1,-7.395454277E0,-1.276160225E0,1.247298661E0,7.607698918E0
1.009050025E1,-8.586102920E0,-1.745653342E0,8.481785376E-1,8.802719794E0
1.010049525E1,-9.724706081E0,-1.955510497E0,5.325012517E-1,9.933654274E0
1.011049125E1,-1.066600547E1,-2.066480856E0,4.794659825E-1,1.087492085E1
1.012048625E1,-1.143237547E1,-2.182070661E0,6.407943168E-1,1.165638274E1
1.013048225E1,-1.208653857E1,-2.321889136E0,8.972109492E-1,1.234020143E1
1.014047725E1,-1.281833632E1,-2.424743267E0,1.172286924E0,1.309822059E1
1.015047325E1,-1.358206221E1,-2.512136630E0,1.622554689E0,1.390740551E1
1.016046825E1,-1.409555767E1,-2.553850958E0,2.212916186E0,1.449496115E1
1.017046425E1,-1.441855318E1,-2.583198134E0,2.718914348E0,1.489832486E1
1.018045925E1,-1.460990448E1,-2.491689209E0,3.057782714E0,1.513300563E1
1.019045525E1,-1.461373207E1,-2.286376656E0,3.284513179E0,1.515178901E1
1.020045025E1,-1.434441517E1,-2.081361289E0,3.376537828E0,1.488271880E1
1.021044625E1,-1.391779413E1,-1.919832980E0,3.254670160E0,1.442163756E1
1.022044125E1,-1.337219511E1,-1.810833717E0,2.964834205E0,1.381611243E1
1.023043725E1,-1.258489559E1,-1.712443496E0,2.623190750E0,1.296893170E1
1.024043225E1,-1.176074575E1,-1.558454295E0,2.245030264E0,1.207410788E1
1.025042825E1,-1.096190850E1,-1.360528384E0,1.975374219E0,1.122125567E1
1.026042425E1,-1.013266105E1,-1.181819493E0,1.890316089E0,1.037500903E1
1.027041925E1,-9.316795546E0,-9.846306239E-1,1.822561039E0,9.544312728E0
1.028041525E1,-8.577312800E0,-7.672912261E-1,1.748011086E0,8.787182339E0
1.029041025E1,-7.819047629E0,-5.501656902E-1,1.727976186E0,8.026586435E0
1.030040625E1,-7.037081938E0,-3.264246145E-1,1.616807168E0,7.227803307E0
1.031040125E1,-6.501848282E0,-1.628746305E-1,1.361719169E0,6.644910709E0
1.032039725E1,-6.091349770E0,-1.002649842E-1,1.165822242E0,6.202720096E0
1.033039225E1,-5.834117305E0,-2.937378019E-2,1.132247822E0,5.943044058E0
1.034038825E1,-5.771900007E0,1.109858541E-1,1.200857881E0,5.896541969E0
1.035038325E1,-5.549313464E0,3.036444470E-1,1.367100362E0,5.723289549E0
1.036037925E1,-4.963062851E0,3.455135809E-1,1.472190030E0,5.188324969E0
1.037037425E1,-4.170105565E0,1.858905870E-1,1.486753982E0,4.431114209E0
1.038037025E1,-2.929377859E0,-1.039171551E-1,1.395719851E0,3.246550064E0
1.039036525E1,-1.120428261E0,-4.881270245E-1,1.046176516E0,1.608761257E0
1.040036125E1,1.227006045E0,-8.587577587E-1,3.586989060E-1,1.540023905E0
1.041035625E1,3.753800182E0,-1.027758809E0,-3.945300588E-1,3.911899532E0
1.042035225E1,6.391832335E0,-6.334082602E-1,-1.210697576E0,6.536246265E0
1.043034725E1,9.060167683E0,2.631337675E-1,-2.127548884E0,9.310335229E0
1.044034325E1,1.167843566E1,1.322249587E0,-3.054946815E0,1.214359516E1
1.045033825E1,1.400174962E1,2.069732639E0,-3.871277761E0,1.467377174E1
1.046033425E1,1.526782266E1,2.005119152E0,-4.559542114E0,1.605977385E1
1.047032925E1,1.540875693E1,1.143251259E0,-5.041171128E0,1.625269885E1
1.048032525E1,1.459879478E1,2.941713730E-1,-5.060026059E0,1.545364712E1
1.049032025E1,1.366788530E1,7.260458440E-2,-4.224532617E0,1.430604892E1
1.050031625E1,1.280598466E1,1.822898716E-1,-3.036124043E0,1.316223849E1
1.051031125E1,1.169703215E1,8.479018182E-2,-2.045090279E0,1.187476925E1
1.052030725E1,1.021306261E1,-1.135647686E-1,-1.318187234E0,1.029840582E1
1.053030225E1,8.531815615E0,-2.039399184E-1,-6.751279977E-1,8.560915079E0
1.054029825E1,6.930061519E0,-4.866725296E-2,-3.120571285E-2,6.930302660E0
1.055029425E1,5.616856990E0,1.883895408E-1,2.139936210E-1,5.624088045E0
1.056028925E1,4.757986380E0,3.057254711E-1,9.864954472E-2,4.768818952E0
1.057028525E1,4.520183043E0,2.767469627E-1,-2.872608411E-1,4.537748607E0
1.058028025E1,4.837312047E0,4.084060863E-1,-9.926819475E-1,4.954977378E0
1.059027625E1,5.439851832E0,8.547500771E-1,-1.771804576E0,5.784624198E0
1.060027125E1,6.273861251E0,1.285363742E0,-2.364147402E0,6.826616137E0
1.061026646E1,7.227276660E0,1.607343303E0,-2.850072073E0,7.933472836E0
1.062026146E1,8.243424507E0,1.970974336E0,-3.344696231E0,9.111848348E0
1.063025746E1,9.271377883E0,2.194965088E0,-3.684781988E0,1.021537752E1
1.064025246E1,1.023117144E1,2.147289961E0,-3.874731127E0,1.114904769E1
1.065024846E1,1.131263385E1,1.983378473E0,-4.076098709E0,1.218704458E1
1.066024346E1,1.247371546E1,1.984964969E0,-4.354702163E0,1.336028047E1
1.067023946E1,1.309397056E1,2.099403457E0,-4.529110572E0,1.401329377E1
1.068023446E1,1.299199979E1,2.039371264E0,-4.401364113E0,1.386806042E1
1.069023046E1,1.231479282E1,1.763416014E0,-3.774097622E0,1.300029119E1
1.070022546E1,1.086338409E1,1.426447847E0,-2.824251938E0,1.131478088E1
1.071022146E1,8.922760454E0,1.079200712E0,-1.832609771E0,9.172719709E0
1.072021646E1,6.669283887E0,6.469319929E-1,-9.403129685E-1,6.766243940E0
1.073021246E1,4.434301479E0,2.621068503E-1,-7.071023270E-2,4.442603915E0
1.074020746E1,2.474514182E0,-1.249681547E-2,6.806382675E-1,2.566445998E0
1.075020346E1,9.147746694E-1,-1.220202810E-1,1.272510978E0,1.571936968E0
1.076019846E1,-2.198710960E-1,-1.199898353E-1,1.665974650E0,1.684699497E0
1.077019446E1,-9.612939477E-1,-1.206559794E-1,1.894081403E0,2.127484026E0
1.078018946E1,-1.630047019E0,-1.870778641E-1,1.872295994E0,2.489486633E0
1.079018546E1,-2.467310413E0,-4.252321802E-1,1.623706152E0,2.984102000E0
1.080018046E1,-3.363099173E0,-7.756925055E-1,1.493964915E0,3.760859752E0
1.081017646E1,-4.207846418E0,-1.048182549E0,1.326225693E0,4.534703157E0
1.082017146E1,-5.170957096E0,-1.342079980E0,1.106319806E0,5.455631904E0
1.083016746E1,-6.175905186E0,-1.758309787E0,1.126863706E0,6.519453964E0
1.084016246E1,-7.098515709E0,-2.203050764E0,1.237442886E0,7.534827326E0
1.085015846E1,-7.980041356E0,-2.624142092E0,1.297486628E0,8.500038430E0
1.086015346E1,-8.873202378E0,-3.034665747E0,1.391912144E0,9.480524039E0
1.087014946E1,-9.776857397E0,-3.354316947E0,1.537219108E0,1.044994858E1
1.088014446E1,-1.084111672E1,-3.607941388E0,1.634418251E0,1.154202650E1
1.089014046E1,-1.174290706E1,-3.827754304E0,1.863170975E0,1.249075560E1
1.090013546E1,-1.263498635E1,-3.961828620E0,2.093277330E0,1.340599776E1
1.091013146E1,-1.351377141E1,-3.914557098E0,2.205411869E0,1.424112413E1
1.092012646E1,-1.401934623E1,-3.678849403E0,2.296733683E0,1.467484198E1
1.093012246E1,-1.428518521E1,-3.271397290E0,2.221784219E0,1.482244520E1
1.094011846E1,-1.433193838E1,-2.870974992E0,2.092868317E0,1.476573916E1
1.095011346E1,-1.407035383E1,-2.643381770E0,1.907331194E0,1.444299956E1
1.096010946E1,-1.364135297E1,-2.556619030E0,1.626239312E0,1.397381358E1
1.097010446E1,-1.329006161E1,-2.536642895E0,1.359468284E0,1.359810460E1
1.098010046E1,-1.289875775E1,-2.550311054E0,1.266075386E0,1.320927647E1
1.099009546E1,-1.251068975E1,-2.635174326E0,1.279008111E0,1.284902188E1
1.100009146E1,-1.222586602E1,-2.757886917E0,1.327659431E0,1.260319086E1
1.101008646E1,-1.175858929E1,-2.847001992E0,1.606970251E0,1.220459733E1
1.102008246E1,-1.119376814E1,-2.887736035E0,1.992535797E0,1.173071454E1
1.103007746E1,-1.067573641E1,-2.851092120E0,2.292855956E0,1.128526750E1
1.104007346E1,-1.016666963E1,-2.724456924E0,2.477638350E0,1.081307212E1
1.105006846E1,-9.666125166E0,-2.536406668E0,2.555681137E0,1.031498137E1
1.106006446E1,-9.045051461E0,-2.239531542E0,2.546147836E0,9.659778790E0
1.107005946E1,-8.465829787E0,-1.866866269E0,2.328017457E0,8.976365017E0
1.108005546E1,-7.987739800E0,-1.518188614E0,2.031948370E0,8.380793397E0
1.109005046E1,-7.456123232E0,-1.150943710E0,1.825156618E0,7.762064272E0
1.110004646E1,-6.712091938E0,-7.755948570E-1,1.547349848E0,6.931667701E0
1.111004146E1,-5.690448292E0,-5.159834522E-1,1.208327115E0,5.840162250E0
1.112003746E1,-4.283466119E0,-4.894876716E-1,9.223278102E-1,4.408896547E0
1.113003246E1,-2.178916966E0,-5.625050694E-1,7.503682145E-1,2.372160103E0
1.114002846E1,5.507685381E-1,-6.040164998E-1,5.491561684E-1,9.847610938E-1
1.115002346E1,3.902627023E0,-5.342296886E-1,1.516554317E-1,3.941940945E0
1.116001946E1,7.520728533E0,-1.842925429E-2,-6.923439547E-1,7.552551718E0
1.117001446E1,1.062056676E1,1.038659627E0,-2.145849792E0,1.088484834E1
1.118001046E1,1.303989668E1,2.591999363E0,-3.845386291E0,1.383995527E1
1.119000546E1,1.459988470E1,3.970442446E0,-5.071269085E0,1.595740632E1
1.120000146E1,1.520131059E1,4.357208864E0,-5.671565294E0,1.679975492E1
1.120999646E1,1.504007011E1,3.610252208E0,-5.837147917E0,1.653208776E1
1.121999246E1,1.452048068E1,2.560627881E0,-5.327498753E0,1.567748121E1
1.122998746E1,1.404777071E1,1.914699563E0,-4.342820913E0,1.482788016E1
1.123998346E1,1.339490687E1,1.509371743E0,-3.167462739E0,1.384682466E1
1.124997846E1,1.262152840E1,1.090685083E0,-2.108012752E0,1.284275246E1
1.125997446E1,1.156238013E1,8.701327859E-1,-1.424109545E0,1.168220241E1
1.126996946E1,1.006658635E1,1.023248998E0,-9.993257001E-1,1.016768661E1
1.127996546E1,8.358231078E0,1.285611079E0,-6.469151822E-1,8.481233511E0
1.128996046E1,6.713253779E0,1.310994281E0,-4.686705606E-1,6.856101983E0
1.129995646E1,5.469397813E0,1.043664552E0,-6.940560195E-1,5.611172952E0
1.130995146E1,4.630039946E0,7.906423742E-1,-1.170888855E0,4.840802204E0
1.131994746E1,4.151464641E0,7.212970278E-1,-1.770900596E0,4.570669206E0
1.132994246E1,4.028780116E0,9.046170326E-1,-2.420723891E0,4.786366614E0
1.133993846E1,4.171461534E0,1.193777634E0,-2.892043387E0,5.214413804E0
1.134993346E1,4.603557322E0,1.460133802E0,-3.224163189E0,5.806888927E0
1.135992946E1,5.312431063E0,1.649975791E0,-3.490834522E0,6.567363974E0
1.136992446E1,6.524844797E0,1.779321610E0,-3.660484468E0,7.690171100E0
1.137992046E1,8.259521892E0,1.811617244E0,-3.800457455E0,9.270659944E0
1.138991546E1,1.015546987E1,1.924415443E0,-4.082333888E0,1.111316306E1
1.139991146E1,1.180133595E1,2.077622287E0,-4.402415442E0,1.276594322E1
1.140990646E1,1.277097855E1,2.095437437E0,-4.438758227E0,1.368178811E1
1.141990246E1,1.296502425E1,1.969215055E0,-4.205041216E0,1.377142089E1
1.142989746E1,1.220501719E1,1.817013055E0,-3.673225258E0,1.287464815E1
1.143989346E1,1.090387839E1,1.708803605E0,-2.941935339E0,1.142232714E1
1.144988946E1,9.334658790E0,1.501511916E0,-2.299608028E0,9.730292382E0
1.145988446E1,7.542791832E0,1.166587204E0,-1.704182696E0,7.820413863E0
1.146988046E1,5.781871848E0,7.511413626E-1,-1.025262925E0,5.919917185E0
1.147987546E1,4.255437491E0,4.255949999E-1,-3.231919813E-1,4.288861434E0
1.148987146E1,3.149304503E0,3.582182649E-1,1.883728762E-1,3.175204485E0
1.149986646E1,2.382860246E0,4.467107575E-1,4.749972479E-1,2.470464701E0
1.150986246E1,1.712803831E0,5.454918645E-1,6.870922780E-1,1.924410075E0
1.151985746E1,8.269038820E-1,4.254536435E-1,8.525955243E-1,1.261625920E0
1.152985346E1,-3.218979925E-1,1.096256456E-1,9.973443711E-1,1.053722874E0
1.153984846E1,-1.684079384E0,-3.110043374E-1,9.779469641E-1,1.972112404E0
1.154984446E1,-3.115265522E0,-7.578346704E-1,8.784938657E-1,3.324296036E0
1.155983946E1,-4.528877853E0,-1.137726225E0,8.622633107E-1,4.748542259E0
1.156983546E1,-5.903978668E0,-1.372755789E0,9.333357784E-1,6.132906182E0
1.157983046E1,-7.199652075E0,-1.499999241E0,1.083692251E0,7.433665086E0
1.158982646E1,-8.302988339E0,-1.746855676E0,1.318563502E0,8.586601762E0
1.159982146E1,-9.071159863E0,-2.180046355E0,1.583476285E0,9.462871685E0
1.160981721E1,-9.705722510E0,-2.661334769E0,1.834072745E0,1.022973973E1
1.161981221E1,-1.032609747E1,-3.017314135E0,2.017697390E0,1.094548201E1
1.162980821E1,-1.089764292E1,-3.115665764E0,2.317034778E0,1.156869243E1
1.163980321E1,-1.144382432E1,-2.984739296E0,2.651936831E0,1.212033633E1
1.164979921E1,-1.197737573E1,-2.768137379E0,2.883643277E0,1.262677760E1
1.165979421E1,-1.249904443E1,-2.556391281E0,3.034747024E0,1.311376901E1
1.166979021E1,-1.298460774E1,-2.360592587E0,3.042314490E0,1.354356353E1
1.167978521E1,-1.315896704E1,-2.174208349E0,2.920494769E0,1.365338365E1
1.168978121E1,-1.314084535E1,-1.958998800E0,2.736568261E0,1.356496585E1
1.169977621E1,-1.306991394E1,-1.750089917E0,2.518755970E0,1.342496171E1
1.170977221E1,-1.286771255E1,-1.584390643E0,2.365565937E0,1.317893099E1
1.171976721E1,-1.258299408E1,-1.523653421E0,2.216087569E0,1.286717932E1
1.172976321E1,-1.231511909E1,-1.527675429E0,2.023917950E0,1.257347185E1
1.173975821E1,-1.199707149E1,-1.631598285E0,1.864559104E0,1.225024155E1
1.174975421E1,-1.166759025E1,-1.807209613E0,1.825071687E0,1.194694753E1
1.175974921E1,-1.133130518E1,-1.910185659E0,1.836062260E0,1.163694165E1
1.176974521E1,-1.096031689E1,-1.924612201E0,1.900634086E0,1.128915800E1
1.177974021E1,-1.063116426E1,-1.844158315E0,2.019875331E0,1.097736169E1
1.178973621E1,-1.028790814E1,-1.755968269E0,2.113883210E0,1.064861402E1
1.179973121E1,-9.921424541E0,-1.680448409E0,2.163879243E0,1.029276179E1
1.180972721E1,-9.629590593E0,-1.582383732E0,2.151148831E0,9.993017290E0
1.181972221E1,-9.354799524E0,-1.414376855E0,2.020948588E0,9.674552662E0
1.182971821E1,-9.133383009E0,-1.141252242E0,1.762846642E0,9.371700494E0
1.183971321E1,-8.895578502E0,-8.048711349E-1,1.438650255E0,9.047035370E0
1.184970921E1,-8.552798349E0,-4.042004764E-1,1.079054532E0,8.630069310E0
1.185970421E1,-7.875391983E0,-7.745733485E-2,6.905152380E-1,7.905985696E0
1.186970021E1,-6.362301557E0,2.821968600E-2,3.260562399E-1,6.370713471E0
1.187969521E1,-4.112791157E0,-1.701273707E-1,-8.955653965E-2,4.117282453E0
1.188969121E1,-1.067731399E0,-6.180368073E-1,-5.449488044E-1,1.348699016E0
1.189968621E1,2.735538567E0,-9.378230779E-1,-8.807304257E-1,3.022973612E0
1.190968221E1,6.686067150E0,-9.735024954E-1,-1.557637439E0,6.933789400E0
1.191967721E1,1.022285319E1,-8.154545952E-1,-2.693854059E0,1.060323267E1
1.192967321E1,1.296886353E1,-1.136881448E-1,-3.919361170E0,1.354864341E1
1.193966821E1,1.489452589E1,1.348011834E0,-5.215656720E0,1.583878507E1
1.194966421E1,1.636006033E1,3.001882163E0,-6.199385850E0,1.775092266E1
1.195965921E1,1.715875958E1,4.111739827E0,-6.874883684E0,1.893656411E1
1.196965521E1,1.801286471E1,3.965543064E0,-7.533124630E0,1.992327266E1
1.197965021E1,1.862719073E1,2.760704691E0,-7.623959956E0,2.031547416E1
1.198964621E1,1.820842016E1,1.581456364E0,-6.945870051E0,1.955230625E1
1.199964121E1,1.651315915E1,1.070771366E0,-5.687525854E0,1.749796922E1
1.200963721E1,1.445413466E1,1.175517876E0,-4.021194816E0,1.504904843E1
1.201963221E1,1.231613300E1,1.430735025E0,-2.846167010E0,1.272143079E1
1.202962821E1,9.896231228E0,1.659571072E0,-2.285803775E0,1.029147548E1
1.203962321E1,7.826531480E0,1.702656281E0,-1.984887639E0,8.251873264E0
1.204961921E1,6.141000817E0,1.497589165E0,-1.784998526E0,6.568172050E0
1.205961421E1,5.070625307E0,1.098920374E0,-1.612719087E0,5.433206222E0
1.206961021E1,4.863158494E0,6.593524291E-1,-1.628460961E0,5.170777627E0
1.207960521E1,5.328832503E0,2.633751845E-1,-1.897569706E0,5.662737246E0
1.208960121E1,6.219573362E0,7.728484198E-3,-2.220224913E0,6.603979951E0
1.209959621E1,7.407318277E0,-1.142464077E-1,-2.382679567E0,7.781939233E0
1.210959221E1,8.805519102E0,-2.660042388E-1,-2.511920283E0,9.160658733E0
1.211958721E1,1.002885660E1,-4.427156474E-1,-2.743494581E0,1.040676340E1
1.212958321E1,1.081540066E1,-6.567469098E-1,-2.933035292E0,1.122527969E1
1.213957821E1,1.102374865E1,-7.752340838E-1,-3.041933252E0,1.146199721E1
1.214957421E1,1.077934322E1,-7.549601792E-1,-3.029465526E0,1.122238239E1
1.215956921E1,1.028139200E1,-6.368769747E-1,-2.826127725E0,1.068174291E1
1.216956521E1,9.380727832E0,-4.322820219E-1,-2.587619798E0,9.740672391E0
1.217956021E1,8.310867462E0,-1.772647744E-1,-2.218498523E0,8.603701324E0
1.218955621E1,7.118006233E0,-7.769341618E-2,-1.804677622E0,7.343630595E0
1.219955121E1,5.728688498E0,-3.603989840E-2,-1.444127780E0,5.908017927E0
1.220954721E1,4.342777936E0,1.250239956E-1,-9.596497107E-1,4.449300930E0
1.221954221E1,3.121663545E0,4.348015872E-1,-3.462218249E-1,3.170757837E0
1.222953821E1,1.929387038E0,7.984595168E-1,1.172881293E-1,2.091369993E0
1.223953321E1,8.007393461E-1,1.073328354E0,4.482592463E-1,1.412145038E0
1.224952921E1,-2.961404228E-1,1.235072425E0,7.078788373E-1,1.454027336E0
1.225952421E1,-1.507977621E0,1.181217376E0,8.854532218E-1,2.110283963E0
1.226952021E1,-2.776907033E0,9.245572805E-1,9.812038632E-1,3.086872180E0
1.227951521E1,-4.115513620E0,5.774154693E-1,1.086795076E0,4.295577321E0
1.228951121E1,-5.480976470E0,2.100271623E-1,1.150324782E0,5.604325256E0
1.229950621E1,-6.677008059E0,-6.090474442E-2,1.156903338E0,6.776767027E0
1.230950221E1,-7.735483900E0,-3.012245768E-1,1.233018737E0,7.838927390E0
1.231949721E1,-8.684292288E0,-3.517065132E-1,1.296581479E0,8.787590885E0
1.232949321E1,-9.620140908E0,-2.604927264E-1,1.310754984E0,9.712520073E0
1.233948821E1,-1.047523539E1,-1.420162967E-1,1.226635916E0,1.054776567E1
1.234948421E1,-1.110450923E1,-1.380806820E-1,1.117627590E0,1.116146419E1
1.235947921E1,-1.165167062E1,-3.929953109E-1,9.538026412E-1,1.169724809E1
1.236947521E1,-1.221568251E1,-8.385294624E-1,8.437919565E-1,1.227346796E1
1.237947021E1,-1.283338471E1,-1.202993577E0,1.008012031E0,1.292900016E1
1.238946621E1,-1.342476392E1,-1.445511378E0,1.345889733E0,1.356927443E1
1.239946121E1,-1.392567266E1,-1.573983769E0,1.653405329E0,1.411153901E1
1.240945721E1,-1.411118845E1,-1.678773328E0,1.966576499E0,1.434612639E1
1.241945221E1,-1.405837990E1,-1.717056365E0,2.320453645E0,1.435168398E1
1.242944821E1,-1.394600694E1,-1.574715694E0,2.533301504E0,1.426143245E1
1.243944321E1,-1.381586780E1,-1.374920428E0,2.491427546E0,1.410587893E1
1.244943921E1,-1.356414868E1,-1.272499722E0,2.291439614E0,1.381506715E1
1.245943421E1,-1.318987776E1,-1.284171495E0,2.015853470E0,1.340468712E1
1.246943021E1,-1.279335117E1,-1.416098567E0,1.731077549E0,1.298737074E1
1.247942521E1,-1.238204282E1,-1.547491643E0,1.419256064E0,1.255882170E1
1.248942121E1,-1.194312976E1,-1.646260324E0,1.176892191E0,1.211336438E1
1.249941621E1,-1.158358915E1,-1.694060143E0,9.895992954E-1,1.174856093E1
1.250941221E1,-1.114760204E1,-1.744469866E0,9.288853164E-1,1.132144135E1
1.251940721E1,-1.067168312E1,-1.905983411E0,1.084003908E0,1.089461600E1
1.252940321E1,-1.024668644E1,-1.985689731E0,1.319969465E0,1.052044990E1
1.253939821E1,-9.880865915E0,-1.762562905E0,1.398462342E0,1.013379673E1
1.254939421E1,-9.292334889E0,-1.462458509E0,1.488860588E0,9.523811129E0
1.255938921E1,-8.334032376E0,-1.150272011E0,1.585885484E0,8.561206347E0
1.256938521E1,-6.988223189E0,-7.651812583E-1,1.498533783E0,7.187932191E0
1.257938021E1,-4.810175704E0,-4.658912328E-1,1.345377663E0,5.016461502E0
1.258937621E1,-1.991271629E0,-3.928384593E-1,1.018358095E0,2.270801173E0
1.259937121E1,1.049824886E0,-4.757012527E-1,5.160428014E-1,1.262823877E0
1.260936708E1,4.370236461E0,-7.659242932E-1,-2.127974269E-1,4.441946588E0
1.261936208E1,7.079197678E0,-1.125242127E0,-1.205663415E0,7.268757382E0
1.262935808E1,9.211504149E0,-1.057885711E0,-2.489486855E0,9.600441431E0
1.263935308E1,1.151441658E1,-4.451929665E-1,-3.678773389E0,1.209600594E1
1.264934908E1,1.371237092E1,5.622223565E-1,-4.636169583E0,1.448583027E1
1.265934408E1,1.563331107E1,1.859275998E0,-5.648662335E0,1.672616837E1
1.266934008E1,1.734298430E1,2.940089958E0,-6.684784856E0,1.881779960E1
1.267933508E1,1.822252014E1,3.233867228E0,-7.743499264E0,2.006190216E1
1.268933108E1,1.763009428E1,2.629544627E0,-8.385942203E0,1.969920699E1
1.269932608E1,1.584257356E1,1.584822021E0,-7.809402062E0,1.773374068E1
1.270932208E1,1.370041921E1,9.017071657E-1,-6.234628188E0,1.507929544E1
1.271931708E1,1.162755436E1,5.760130146E-1,-4.332571621E0,1.242187539E1
1.272931308E1,9.832611183E0,3.568876944E-1,-2.825534525E0,1.023676008E1
1.273930808E1,7.878092228E0,3.294283292E-1,-1.962208629E0,8.125461394E0
1.274930408E1,5.888061377E0,4.685400215E-1,-1.238361923E0,6.035092111E0
1.275929908E1,4.077740607E0,5.443558967E-1,-5.191134667E-1,4.146537181E0
1.276929508E1,2.630469949E0,5.132314602E-1,-1.136815667E-2,2.680094759E0
1.277929008E1,1.683957762E0,4.811717615E-1,1.274201846E-1,1.755982891E0
1.278928608E1,1.429439574E0,5.063060545E-1,-1.231204346E-1,1.521447324E0
1.279928108E1,1.707224418E0,6.344655830E-1,-6.713118124E-1,1.941087669E0
1.280927708E1,2.233328816E0,7.706206307E-1,-1.264723217E0,2.679764649E0
1.281927208E1,3.055088317E0,8.797896087E-1,-1.778249669E0,3.642769039E0
1.282926808E1,3.929062870E0,9.629983380E-1,-2.165058772E0,4.588287297E0
1.283926308E1,4.969054493E0,1.040408530E0,-2.461002729E0,5.641851371E0
1.284925908E1,6.236801013E0,1.060479170E0,-2.799905594E0,6.918220456E0
1.285925408E1,7.584570773E0,9.869092108E-1,-3.140226409E0,8.268054517E0
1.286925008E1,8.599436910E0,7.117502057E-1,-3.355365938E0,9.258260317E0
1.287924508E1,8.974169759E0,1.806508970E-1,-3.388094265E0,9.594140939E0
1.288924108E1,8.937329376E0,-3.253751124E-1,-3.330928085E0,9.543416959E0
1.289923608E1,8.966464298E0,-7.440482515E-1,-3.135721421E0,9.528055344E0
1.290923208E1,9.047905487E0,-1.249512270E0,-2.676037885E0,9.517723119E0
1.291922708E1,8.966109372E0,-1.717389510E0,-2.119028029E0,9.371810059E0
1.292922308E1,8.761867883E0,-1.977870396E0,-1.616445225E0,9.126620145E0
1.293921808E1,8.627283690E0,-1.940353491E0,-1.104645456E0,8.911522716E0
1.294921408E1,8.173047420E0,-1.697465269E0,-6.634253803E-1,8.373782043E0
1.295920908E1,7.128459885E0,-1.427881876E0,-3.190790498E-1,7.277059738E0
1.296920508E1,5.597900317E0,-1.203154521E0,-5.012262493E-2,5.725956780E0
1.297920008E1,3.944986593E0,-1.019539817E0,3.513515872E-1,4.089722312E0
1.298919608E1,2.388569468E0,-8.552225322E-1,7.289408004E-1,2.639701569E0
1.299919108E1,9.541767168E-1,-6.249672197E-1,8.976553376E-1,1.451489696E0
1.300918708E1,-3.279293954E-1,-3.619720311E-1,9.952219780E-1,1.108615454E0
1.301918208E1,-1.645756148E0,-1.219517224E-1,1.074596907E0,1.969300392E0
1.302917808E1,-3.086796598E0,5.242964387E-2,1.119311442E0,3.283887972E0
1.303917308E1,-4.618816801E0,1.670720543E-1,1.077713327E0,4.745824241E0
1.304916908E1,-6.146035269E0,2.224526417E-1,1.012264127E0,6.232809429E0
1.305916408E1,-7.461377540E0,2.053872505E-1,9.773539102E-1,7.527918662E0
1.306916008E1,-8.574283358E0,1.822796389E-1,1.051682546E0,8.640462785E0
1.307915508E1,-9.377065136E0,2.718980129E-1,1.242175184E0,9.462889532E0
1.308915008E1,-1.002659256E1,4.698411731E-1,1.425250775E0,1.013827643E1
1.309914608E1,-1.074273030E1,5.997094408E-1,1.543689491E0,1.086963122E1
1.310914108E1,-1.140345280E1,4.774562944E-1,1.502124120E0,1.151186680E1
1.311913708E1,-1.207050200E1,1.975832641E-2,1.372542658E0,1.214830368E1
1.312913208E1,-1.290602584E1,-5.389587705E-1,1.317249194E0,1.298426452E1
1.313912808E1,-1.388466029E1,-9.448701422E-1,1.325663337E0,1.397976947E1
1.314912308E1,-1.486914196E1,-1.178132970E0,1.405053177E0,1.498177407E1
1.315911908E1,-1.567844455E1,-1.210494093E0,1.486343508E0,1.579519346E1
1.316911408E1,-1.604125142E1,-1.146576863E0,1.623162653E0,1.616388080E1
1.317911008E1,-1.589895592E1,-1.036497619E0,1.729198254E0,1.602626760E1
1.318910508E1,-1.530080798E1,-8.924292424E-1,1.642489163E0,1.541456861E1
1.319910108E1,-1.448194168E1,-7.414399548E-1,1.336884144E0,1.456240458E1
1.320909608E1,-1.362209224E1,-5.862753166E-1,1.022804464E0,1.367301155E1
1.321909208E1,-1.275165701E1,-5.191983975E-1,8.185303769E-1,1.278844461E1
1.322908708E1,-1.197782714E1,-5.536390825E-1,5.487480327E-1,1.200316556E1
1.323908308E1,-1.123279129E1,-7.220530728E-1,3.470585614E-1,1.126132365E1
1.324907808E1,-1.055271684E1,-9.369986205E-1,2.612264058E-1,1.059745433E1
1.325907408E1,-9.798023148E0,-1.141320362E0,2.816077530E-1,9.868291276E0
1.326906908E1,-8.894097403E0,-1.390107986E0,5.282930106E-1,9.017564102E0
1.327906508E1,-7.818559971E0,-1.550348884E0,8.908718365E-1,8.020418587E0
1.328906008E1,-6.580466436E0,-1.478963883E0,1.151093106E0,6.842140602E0
1.329905608E1,-5.532067101E0,-1.419361314E0,1.421817729E0,5.885568673E0
1.330905108E1,-4.375833415E0,-1.514377398E0,1.779891860E0,4.960773329E0
1.331904708E1,-2.890163507E0,-1.693946853E0,2.122375852E0,3.965725696E0
1.332904208E1,-1.330097135E0,-1.851941982E0,2.402372697E0,3.312135575E0
1.333903808E1,4.868333280E-2,-1.802069179E0,2.323233557E0,2.940618567E0
1.334903308E1,1.355938320E0,-1.599255581E0,1.709686388E0,2.705404717E0
1.335902908E1,3.023948970E0,-1.408310222E0,1.175769818E0,3.536953452E0
1.336902408E1,5.004614335E0,-1.271072416E0,6.384247327E-1,5.202823836E0
1.337902008E1,7.116903448E0,-1.181061475E0,-3.123018345E-1,7.220993930E0
1.338901508E1,9.397169618E0,-1.056225540E0,-1.622463180E0,9.594519060E0
1.339901108E1,1.152489129E1,-9.708923715E-1,-2.954619704E0,1.193714911E1
1.340900608E1,1.321105871E1,-9.028610406E-1,-4.085834908E0,1.385789584E1
1.341900208E1,1.426020824E1,-9.109795341E-1,-4.916511998E0,1.511143650E1
1.342899708E1,1.450828572E1,-9.638369018E-1,-5.421402698E0,1.551808440E1
1.343899308E1,1.419328803E1,-9.298897219E-1,-5.515263957E0,1.525556477E1
1.344898808E1,1.360138725E1,-8.994286519E-1,-5.214851559E0,1.459456693E1
1.345898408E1,1.266251036E1,-8.234961247E-1,-4.618402233E0,1.350359040E1
1.346897908E1,1.154833044E1,-5.606231430E-1,-3.755980609E0,1.215671109E1
1.347897508E1,1.027017119E1,-1.812964296E-1,-2.764785170E0,1.063735502E1
1.348897008E1,8.994577126E0,3.366853085E-1,-1.782115264E0,9.175604039E0
1.349896608E1,7.662097836E0,7.799983951E-1,-1.000213892E0,7.766374223E0
1.350896108E1,6.287771192E0,1.028199836E0,-6.041530323E-1,6.399864245E0
1.351895708E1,4.951875958E0,1.090237040E0,-4.777119640E-1,5.092926568E0
1.352895208E1,3.871526853E0,1.135611725E0,-5.222320792E-1,4.068299461E0
1.353894808E1,2.919573832E0,1.244612304E0,-7.209964809E-1,3.254659287E0
1.354894308E1,2.183759045E0,1.405698125E0,-9.022022787E-1,2.749319868E0
1.355893908E1,1.787851675E0,1.588004369E0,-1.111080025E0,2.636791669E0
1.356893408E1,1.667007853E0,1.776034744E0,-1.382693424E0,2.800902658E0
1.357893008E1,1.615968093E0,1.957711827E0,-1.689067936E0,3.049088219E0
1.358892508E1,1.661198060E0,2.091609558E0,-1.975388545E0,3.322133266E0
1.359892108E1,1.880465723E0,2.202323955E0,-2.229859078E0,3.654949199E0
1.360891646E1,2.312139342E0,2.303866117E0,-2.436889981E0,4.073354907E0
1.361891246E1,2.776317049E0,2.256864443E0,-2.696241184E0,4.480077008E0
1.362890746E1,3.448856776E0,2.076505907E0,-2.994807909E0,5.017505781E0
1.363890346E1,4.421272713E0,1.804064834E0,-3.350628524E0,5.833439280E0
1.364889846E1,5.452657235E0,1.406665547E0,-3.721960339E0,6.750049455E0
1.365889346E1,6.194169549E0,1.003564639E0,-4.019111453E0,7.451720288E0
1.366888946E1,7.049652282E0,5.286499831E-1,-3.936165191E0,8.091382114E0
1.367888446E1,8.220878813E0,-1.297298531E-1,-3.667086851E0,9.002622078E0
1.368888046E1,9.808782610E0,-7.955856103E-1,-3.328350632E0,1.038860388E1
1.369887546E1,1.161471738E1,-1.297500077E0,-3.121606243E0,1.209667689E1
1.370887146E1,1.334079907E1,-1.608098617E0,-3.222757519E0,1.381843215E1
1.371886646E1,1.410577860E1,-1.746677336E0,-3.439717871E0,1.462380015E1
1.372886246E1,1.397632125E1,-1.944875289E0,-3.229267808E0,1.447578205E1
1.373885746E1,1.277037512E1,-2.247783864E0,-2.714975371E0,1.324787169E1
1.374885346E1,1.031900012E1,-2.410054769E0,-2.067480730E0,1.079650888E1
1.375884846E1,7.403042793E0,-2.365754217E0,-1.428708673E0,7.902091121E0
1.376884446E1,4.518240014E0,-2.211696310E0,-9.080722985E-1,5.111818531E0
1.377883946E1,1.699138888E0,-2.013737947E0,-4.905717453E-1,2.680088454E0
1.378883546E1,-9.274602038E-1,-1.866480791E0,2.716616392E-3,2.084212166E0
1.379883046E1,-3.152288337E0,-1.671785759E0,5.587575889E-1,3.611647745E0
1.380882646E1,-4.896094106E0,-1.408234939E0,1.091965184E0,5.210302400E0
1.381882146E1,-6.375653089E0,-1.218765564E0,1.489519423E0,6.659805547E0
1.382881746E1,-7.529765405E0,-1.235490063E0,1.845972998E0,7.850568072E0
1.383881246E1,-8.206870054E0,-1.552562494E0,2.346936854E0,8.675902200E0
1.384880846E1,-8.610723206E0,-1.973906861E0,2.867766917E0,9.287892630E0
1.385880346E1,-8.818739072E0,-2.169511866E0,3.324052928E0,9.670898016E0
1.386879946E1,-8.989289489E0,-2.058623514E0,3.561924970E0,9.885978241E0
1.387879446E1,-9.178531700E0,-1.722704044E0,3.613001568E0,1.001333779E1
1.388879046E1,-9.285256249E0,-1.379696141E0,3.505771819E0,1.002047809E1
1.389878546E1,-9.338845396E0,-1.246355212E0,3.258541309E0,9.969228963E0
1.390878146E1,-9.499404675E0,-1.311367772E0,2.890118483E0,1.001554589E1
1.391877646E1,-9.805442680E0,-1.354975137E0,2.494966865E0,1.020820863E1
1.392877246E1,-1.028971142E1,-1.347013276E0,2.160045370E0,1.059992462E1
1.393876746E1,-1.085037403E1,-1.238645951E0,2.012211386E0,1.110467717E1
1.394876346E1,-1.143967514E1,-1.031029157E0,1.972490080E0,1.165417974E1
1.395875846E1,-1.194689303E1,-8.132789925E-1,2.038573265E0,1.214682908E1
1.396875446E1,-1.227832724E1,-6.379543242E-1,2.166959410E0,1.248439100E1
1.397874946E1,-1.242092914E1,-5.288473266E-1,2.211350302E0,1.262732079E1
1.398874546E1,-1.235056024E1,-4.906717327E-1,2.123588272E0,1.254140040E1
1.399874046E1,-1.210193780E1,-4.861999284E-1,2.041152764E0,1.228249134E1
1.400873646E1,-1.167159676E1,-4.526763792E-1,1.973411601E0,1.184590394E1
1.401873146E1,-1.124670532E1,-3.806762508E-1,1.828074671E0,1.140066455E1
1.402872746E1,-1.091258022E1,-3.492493670E-1,1.688820599E0,1.104800874E1
1.403872246E1,-1.072536524E1,-3.941768870E-1,1.483940302E0,1.083470875E1
1.404871746E1,-1.065494137E1,-5.070930532E-1,1.260818739E0,1.074125611E1
1.405871346E1,-1.056235422E1,-6.176245786E-1,1.033714930E0,1.063077388E1
1.406870846E1,-1.035923364E1,-7.447586882E-1,9.260013235E-1,1.042716959E1
1.407870446E1,-1.011183561E1,-8.445493171E-1,9.565343142E-1,1.019202830E1
1.408869946E1,-9.843908004E0,-8.381631343E-1,1.056971645E0,9.935906163E0
1.409869546E1,-9.460431229E0,-7.250769603E-1,1.118892782E0,9.553921535E0
1.410869046E1,-8.900570855E0,-6.208651786E-1,1.122651080E0,8.992551393E0
1.411868646E1,-8.161217333E0,-5.520324138E-1,1.161748195E0,8.261952978E0
1.412868146E1,-7.046435144E0,-4.180428093E-1,1.203609289E0,7.160704110E0
1.413867746E1,-5.388723194E0,-1.765878861E-1,1.201676199E0,5.523906827E0
1.414867246E1,-2.933872613E0,1.321869079E-1,9.482040784E-1,3.086125867E0
1.415866846E1,2.250382805E-1,3.538707869E-1,3.592877206E-1,5.522267901E-1
1.416866346E1,3.516149458E0,3.823309397E-1,-4.139597717E-1,3.561017642E0
1.417865946E1,6.576513133E0,1.137659859E-1,-1.234894816E0,6.692416073E0
1.418865446E1,9.058857906E0,-2.973346435E-1,-1.884942644E0,9.257662946E0
1.419865046E1,1.120508250E1,-5.189184621E-1,-2.228276821E0,1.143627421E1
1.420864546E1,1.262842460E1,-1.988279171E-1,-2.439151099E0,1.286336265E1
1.421864146E1,1.383909060E1,3.709536467E-1,-2.538310229E0,1.407483762E1
1.422863646E1,1.479603773E1,7.245237406E-1,-2.538649659E0,1.502971754E1
1.423863246E1,1.523214880E1,8.170492040E-1,-2.399088901E0,1.544155284E1
1.424862746E1,1.530412803E1,6.417941176E-1,-2.220200355E0,1.547764594E1
1.425862346E1,1.471296634E1,3.660753878E-1,-2.149760117E0,1.487369686E1
1.426861846E1,1.379072594E1,2.202287994E-2,-1.982578866E0,1.393252404E1
1.427861446E1,1.296844019E1,-4.164466656E-1,-1.734033609E0,1.309048286E1
1.428860946E1,1.201860328E1,-4.975712279E-1,-1.464668756E0,1.211774139E1
1.429860546E1,1.122443211E1,-9.855642781E-2,-1.296631765E0,1.129950634E1
1.430860046E1,1.059940335E1,3.025478748E-1,-1.275558546E0,1.068016555E1
1.431859646E1,9.950903864E0,4.180944110E-1,-1.274822967E0,1.004093941E1
1.432859146E1,9.423391457E0,3.550191801E-1,-1.302059297E0,9.519543244E0
1.433858746E1,9.181783921E0,2.256443444E-1,-1.521656013E0,9.309753400E0
1.434858246E1,9.326006080E0,1.795972288E-3,-1.963728905E0,9.530510156E0
1.435857746E1,1.005934633E1,-3.133780146E-1,-2.381008579E0,1.034204313E1
1.436857346E1,1.149027811E1,-6.039511572E-1,-2.611731377E0,1.179882998E1
1.437856846E1,1.362651040E1,-6.821009485E-1,-2.696794331E0,1.390754281E1
1.438856446E1,1.558408570E1,-6.908833203E-1,-2.784495549E0,1.584596044E1
1.439855946E1,1.612696459E1,-5.398637733E-1,-2.849041793E0,1.638558753E1
1.440855546E1,1.560002988E1,-1.975991978E-1,-2.651684232E0,1.582502471E1
1.441855046E1,1.398218951E1,1.996034771E-1,-2.506804261E0,1.420653134E1
1.442854646E1,1.140189861E1,6.393700813E-1,-2.425357225E0,1.167452114E1
1.443854146E1,8.537123133E0,1.086024559E0,-2.176801297E0,8.876958072E0
1.444853746E1,5.686802554E0,1.583122382E0,-1.785178328E0,6.167078840E0
1.445853246E1,3.120180107E0,1.998847428E0,-1.376139719E0,3.952806024E0
1.446852846E1,8.870734853E-1,1.986199170E0,-9.918596828E-1,2.390747193E0
1.447852346E1,-1.029380681E0,1.473375991E0,-4.775852986E-1,1.859717483E0
1.448851946E1,-2.904252373E0,7.273994744E-1,-2.013430238E-2,2.994026926E0
1.449851446E1,-4.817871809E0,1.767921732E-1,3.806455529E-1,4.836117790E0
1.450851046E1,-6.666705265E0,-9.649440721E-3,7.401955211E-1,6.707677811E0
1.451850546E1,-8.197371837E0,1.884411424E-3,1.047469043E0,8.264024442E0
1.452850146E1,-9.314380646E0,-4.625907719E-2,1.306933975E0,9.405737777E0
1.453849646E1,-1.001774689E1,-2.838677019E-1,1.325655005E0,1.010906499E1
1.454849246E1,-1.041565343E1,-7.542606329E-1,1.041839928E0,1.049476898E1
1.455848746E1,-1.077346911E1,-1.285510361E0,6.744593686E-1,1.087083571E1
1.456848346E1,-1.108638987E1,-1.585762546E0,3.538582885E-1,1.120481588E1
1.457847846E1,-1.144406756E1,-1.564292593E0,3.139896333E-2,1.155052724E1
1.458847446E1,-1.196753838E1,-1.298619819E0,-3.630787263E-1,1.204326427E1
1.459846946E1,-1.273261848E1,-9.575455170E-1,-7.263417131E-1,1.278921573E1
1.460846746E1,-1.344541278E1,-5.965517250E-1,-1.096559926E0,1.350323822E1
1.461846346E1,-1.406401779E1,-3.359146455E-1,-1.462844718E0,1.414388029E1
1.462845846E1,-1.447968582E1,-1.068110152E-1,-1.684334323E0,1.457771217E1
1.463845446E1,-1.469306826E1,5.881706916E-2,-1.760760355E0,1.479831043E1
1.464844946E1,-1.475909034E1,8.737297006E-2,-1.739170096E0,1.486146340E1
1.465844546E1,-1.470903116E1,-3.713208519E-2,-1.587779835E0,1.479452674E1
1.466844046E1,-1.446515081E1,-2.416258811E-1,-1.386502301E0,1.453345657E1
1.467843646E1,-1.399595386E1,-4.361810184E-1,-1.115605477E0,1.404711906E1
1.468843146E1,-1.338189447E1,-6.023515783E-1,-7.728381872E-1,1.341771985E1
1.469842746E1,-1.272230048E1,-6.696677215E-1,-4.986599064E-1,1.274966847E1
1.470842246E1,-1.216455563E1,-6.288418771E-1,-2.768071890E-1,1.218394345E1
1.471841846E1,-1.168036524E1,-5.711747726E-1,-3.118312798E-2,1.169436382E1
1.472841346E1,-1.124384019E1,-5.188524617E-1,1.182914384E-1,1.125642674E1
1.473840946E1,-1.090636931E1,-5.273127980E-1,2.256532614E-1,1.092144082E1
1.474840446E1,-1.052727327E1,-5.019571147E-1,3.426669370E-1,1.054480270E1
1.475840046E1,-1.011686188E1,-4.431904413E-1,4.492216980E-1,1.013652367E1
1.476839546E1,-9.577398931E0,-3.242267923E-1,6.076859200E-1,9.602133902E0
1.477839146E1,-8.464432302E0,-7.566430444E-2,7.523450120E-1,8.498138755E0
1.478838646E1,-6.960054812E0,2.636168572E-1,7.688272896E-1,7.007349872E0
1.479838246E1,-5.421949412E0,6.087148838E-1,7.557363971E-1,5.508103734E0
1.480837746E1,-3.727527473E0,9.005292441E-1,7.064864691E-1,3.899299567E0
1.481837346E1,-1.955770259E0,9.447049583E-1,6.419916804E-1,2.264874850E0
1.482836846E1,-7.436488867E-3,7.360754268E-1,6.320053670E-1,9.702026176E-1
1.483836346E1,2.364495896E0,3.764729798E-1,6.293440068E-1,2.475610354E0
1.484835946E1,4.728041035E0,-4.697653055E-2,3.393408215E-1,4.740435741E0
1.485835446E1,6.935569012E0,-3.711675087E-1,-3.058798376E-1,6.952225925E0
1.486835046E1,9.347944833E0,-3.250812532E-1,-1.107568772E0,9.418941501E0
1.487834546E1,1.149357477E1,1.492098337E-1,-2.133257228E0,1.169082165E1
1.488834146E1,1.358100854E1,7.880826093E-1,-3.479351468E0,1.404175038E1
1.489833646E1,1.564543351E1,1.023914850E0,-4.550606399E0,1.632593060E1
1.490833246E1,1.746405674E1,6.058596884E-1,-5.220155568E0,1.823760862E1
1.491832746E1,1.925655929E1,-2.831229128E-1,-5.478110164E0,2.002261035E1
1.492832346E1,2.123819120E1,-1.220326186E0,-5.111216093E0,2.187863093E1
1.493831846E1,2.306898249E1,-1.890303956E0,-4.451905983E0,2.357054664E1
1.494831446E1,2.392406060E1,-2.289827829E0,-3.801346816E0,2.433216440E1
1.495830946E1,2.315515174E1,-2.424748384E0,-3.104795498E0,2.348787372E1
1.496830546E1,2.081456277E1,-2.450210961E0,-2.187840694E0,2.107216657E1
1.497830046E1,1.727359656E1,-2.451798042E0,-1.430287421E0,1.750526132E1
1.498829646E1,1.393906747E1,-2.488260986E0,-9.154494381E-1,1.418897784E1
1.499829146E1,1.220743326E1,-2.566419841E0,-6.862187040E-1,1.249315147E1
1.500828746E1,1.184920944E1,-2.408094052E0,-1.065348512E0,1.213827207E1
1.501828246E1,1.168004832E1,-1.942997894E0,-1.771473624E0,1.197233847E1
1.502827846E1,1.149081254E1,-1.285936477E0,-2.029107939E0,1.173923697E1
1.503827346E1,1.122307439E1,-6.883223860E-1,-1.887036824E0,1.140140756E1
1.504826946E1,1.053025769E1,-1.607503371E-1,-1.852808393E0,1.069322526E1
1.505826446E1,9.136455136E0,4.474711513E-1,-2.041154080E0,9.372371784E0
1.506825946E1,7.027817609E0,1.057555270E0,-2.281776652E0,7.464258047E0
1.507825546E1,4.625615358E0,1.491138663E0,-2.198699266E0,5.334237567E0
1.508825046E1,2.295770062E0,1.693074448E0,-1.909731330E0,3.432802794E0
1.509824646E1,1.895831037E-1,1.741478138E0,-1.626258023E0,2.390272582E0
1.510824146E1,-1.788198999E0,1.648393535E0,-1.323353541E0,2.768776174E0
1.511823746E1,-3.543116232E0,1.417741927E0,-9.577679305E-1,3.934588188E0
1.512823246E1,-4.941290159E0,1.126312752E0,-5.110384619E-1,5.093730378E0
1.513822846E1,-5.966032244E0,8.238498813E-1,-1.381159115E-1,6.024229857E0
1.514822346E1,-6.681464807E0,5.305661888E-1,1.181300553E-1,6.703538406E0
1.515821946E1,-7.269576588E0,1.659770901E-1,3.206846222E-1,7.278539056E0
1.516821446E1,-7.900068403E0,-2.737670754E-1,4.344691730E-1,7.916741289E0
1.517821046E1,-8.586079531E0,-6.900802783E-1,4.655810745E-1,8.626339794E0
1.518820546E1,-9.160290726E0,-1.034202441E0,4.431101882E-1,9.229130377E0
1.519820146E1,-9.581586707E0,-1.255889975E0,1.995935369E-1,9.665604018E0
1.520819646E1,-9.889440272E0,-1.305842884E0,-3.497332972E-2,9.975343486E0
1.521819246E1,-1.028108444E1,-1.182939381E0,-9.018990275E-2,1.034930804E1
1.522818746E1,-1.072510445E1,-9.331952991E-1,-8.348420620E-2,1.076595043E1
1.523818346E1,-1.118510842E1,-7.288091650E-1,-1.037704631E-1,1.120930780E1
1.524817846E1,-1.165748041E1,-6.202245431E-1,-1.639512491E-1,1.167511919E1
1.525817346E1,-1.216941700E1,-6.281114868E-1,-1.664654788E-1,1.218675285E1
1.526816946E1,-1.261091687E1,-6.591203678E-1,-4.482241631E-2,1.262820941E1
1.527816446E1,-1.292606308E1,-6.451887187E-1,1.750072376E-1,1.294333816E1
1.528816046E1,-1.310817578E1,-5.803459476E-1,4.406765771E-1,1.312841459E1
1.529815546E1,-1.313125942E1,-4.529553645E-1,6.222210018E-1,1.315379419E1
1.530815146E1,-1.306741601E1,-3.695136237E-1,7.127266176E-1,1.309205411E1
1.531814646E1,-1.294247388E1,-4.321877356E-1,8.286814356E-1,1.297617545E1
1.532814246E1,-1.270077454E1,-6.397929811E-1,9.503618471E-1,1.275234083E1
1.533813746E1,-1.239850741E1,-8.988548208E-1,1.122186080E0,1.248159555E1
1.534813346E1,-1.207314143E1,-1.111716933E0,1.302975848E0,1.219403151E1
1.535812846E1,-1.172979059E1,-1.262518525E0,1.475188044E0,1.188941210E1
1.536812446E1,-1.140601973E1,-1.330926124E0,1.671044186E0,1.160435432E1
1.537811946E1,-1.111234450E1,-1.212812075E0,1.861900814E0,1.133233374E1
1.538811546E1,-1.090836321E1,-1.047091166E0,2.008899523E0,1.114111597E1
1.539811046E1,-1.071800593E1,-8.634766810E-1,2.084008177E0,1.095282307E1
1.540810646E1,-1.044166769E1,-6.497428226E-1,2.075809650E0,1.066581341E1
1.541810146E1,-9.758265590E0,-4.325272395E-1,2.086594985E0,9.988228360E0
1.542809746E1,-8.319302071E0,-3.520614392E-1,1.975646700E0,8.557915288E0
1.543809246E1,-6.314908705E0,-3.884694929E-1,1.659705558E0,6.540917599E0
1.544808846E1,-3.794904354E0,-3.815320639E-1,1.196883529E0,3.997423665E0
1.545808346E1,-9.869503605E-1,-2.176565179E-1,5.499429113E-1,1.150600965E0
1.546807846E1,1.778267503E0,1.036004188E-1,-1.391336194E-1,1.786708293E0
1.547807446E1,4.010548498E0,3.585667589E-1,-9.955153620E-1,4.147784977E0
1.548806946E1,5.641199534E0,2.948357811E-1,-2.151973581E0,6.044919405E0
1.549806546E1,6.854117298E0,-1.258652912E-1,-3.322165155E0,7.617844007E0
1.550806046E1,8.424582943E0,-9.265970086E-1,-4.297219940E0,9.502540660E0
1.551805646E1,1.063134201E1,-1.719142213E0,-5.195925291E0,1.195736269E1
1.552805146E1,1.336127368E1,-1.999556111E0,-6.428545833E0,1.496155275E1
1.553804746E1,1.672668075E1,-1.858357693E0,-7.578989021E0,1.845742173E1
1.554804246E1,2.043276999E1,-1.388392705E0,-8.330074981E0,2.210918074E1
1.555803846E1,2.355482998E1,-8.602445595E-1,-8.965671415E0,2.521811452E1
1.556803346E1,2.505895370E1,-5.150019971E-1,-9.106004591E0,2.666712784E1
1.557802946E1,2.426721030E1,-5.180872804E-1,-8.513767015E0,2.572256089E1
1.558802446E1,2.166145477E1,-7.475751458E-1,-7.449711760E0,2.291889388E1
1.559802046E1,1.814475451E1,-1.044458896E0,-6.117169320E0,1.917662043E1
1.560801558E1,1.446359195E1,-1.208847224E0,-4.736699592E0,1.526738768E1
1.561801158E1,1.162500965E1,-1.309064992E0,-3.372107686E0,1.217479408E1
1.562800658E1,1.029364075E1,-1.325556918E0,-2.293998648E0,1.062913782E1
1.563800158E1,9.889882321E0,-1.074876770E0,-1.800804719E0,1.010979871E1
1.564799758E1,9.638671319E0,-6.844186386E-1,-1.790203132E0,9.827372025E0
1.565799258E1,9.472298153E0,-4.047842478E-1,-1.926433901E0,9.674679848E0
1.566798858E1,9.143788129E0,-4.182861266E-1,-1.983120611E0,9.365713640E0
1.567798358E1,8.595253812E0,-4.864327937E-1,-2.021285095E0,8.843110222E0
1.568797958E1,7.839680699E0,-5.510237691E-1,-2.073934886E0,8.128064134E0
1.569797458E1,6.926615170E0,-5.389538004E-1,-2.004194268E0,7.230854969E0
1.570797058E1,5.694632560E0,-3.618017310E-1,-1.943450176E0,6.027996273E0
1.571796558E1,4.130960795E0,1.322113474E-2,-1.731207065E0,4.479072425E0
1.572796158E1,2.570779232E0,4.407745180E-1,-1.276480798E0,2.903892434E0
1.573795658E1,1.197951815E0,7.412836879E-1,-7.279207537E-1,1.585704475E0
1.574795258E1,-1.122250253E-1,9.232019690E-1,-2.038862702E-1,9.520850503E-1
1.575794758E1,-1.390499457E0,9.659408762E-1,3.947803196E-1,1.738499933E0
1.576794358E1,-2.465187289E0,9.006507200E-1,1.021414434E0,2.816310980E0
1.577793858E1,-3.342391843E0,7.128302595E-1,1.561875793E0,3.757547898E0
1.578793458E1,-4.105452901E0,4.383402855E-1,2.001444030E0,4.588318203E0
1.579792958E1,-4.857048739E0,1.562137748E-1,2.385946991E0,5.413692662E0
1.580792458E1,-5.627114761E0,-6.156167910E-2,2.690535471E0,6.237562945E0
1.581792058E1,-6.335765138E0,-2.288583030E-1,2.899936251E0,6.971651617E0
1.582791558E1,-7.003592595E0,-4.122688666E-1,2.989279952E0,7.626012686E0
1.583791158E1,-7.724001138E0,-5.634613449E-1,2.940406584E0,8.283940678E0
1.584790658E1,-8.340132192E0,-6.647670239E-1,2.808175896E0,8.825280281E0
1.585790258E1,-8.837715626E0,-7.769412515E-1,2.645766557E0,9.257912068E0
1.586789758E1,-9.336536915E0,-8.498970343E-1,2.507489555E0,9.704676729E0
1.587789358E1,-9.928307884E0,-8.917470185E-1,2.435755913E0,1.026155042E1
1.588788858E1,-1.054683571E1,-8.846370967E-1,2.454892681E0,1.086484350E1
1.589788458E1,-1.116213120E1,-8.791439299E-1,2.506403142E0,1.147380162E1
1.590787958E1,-1.167694345E1,-8.548990349E-1,2.673265135E0,1.200950487E1
1.591787558E1,-1.213163931E1,-7.912415676E-1,2.853233662E0,1.248774111E1
1.592787058E1,-1.247742494E1,-5.866345549E-1,2.890191574E0,1.282121213E1
1.593786658E1,-1.288339946E1,-3.232224599E-1,2.929467029E0,1.321621093E1
1.594786158E1,-1.313351411E1,-1.312994467E-1,3.005455397E0,1.347364815E1
1.595785758E1,-1.314487759E1,-7.457012594E-2,3.039702246E0,1.349196640E1
1.596785258E1,-1.308969975E1,-1.789566663E-1,2.903235250E0,1.340899101E1
1.597784758E1,-1.294906369E1,-3.001725166E-1,2.703782923E0,1.323173443E1
1.598784358E1,-1.267983800E1,-3.556737028E-1,2.569270943E0,1.294240892E1
1.599783858E1,-1.240311384E1,-4.486249897E-1,2.579569352E0,1.267646147E1
1.600783458E1,-1.207147731E1,-6.099945469E-1,2.625725810E0,1.236879517E1
1.601782958E1,-1.174436419E1,-7.877298760E-1,2.658134588E0,1.206715741E1
1.602782558E1,-1.147431521E1,-9.631027108E-1,2.761812153E0,1.184124498E1
1.603782058E1,-1.116860523E1,-1.100918368E0,2.889960901E0,1.158885836E1
1.604781658E1,-1.066437176E1,-1.175128890E0,2.897274013E0,1.111323309E1
1.605781158E1,-9.863768656E0,-1.240188008E0,2.686447391E0,1.029800942E1
1.606780758E1,-8.666319702E0,-1.334062716E0,2.300113959E0,9.065061761E0
1.607780258E1,-6.900939462E0,-1.474613262E0,1.774213629E0,7.276350990E0
1.608779858E1,-4.800021429E0,-1.458144726E0,1.100673442E0,5.135939426E0
1.609779358E1,-2.367637605E0,-1.309305605E0,4.619206810E-1,2.744696652E0
1.610778858E1,-3.219593883E-2,-1.352481592E0,-3.803777504E-1,1.405322122E0
1.611778458E1,1.791330768E0,-1.710225794E0,-1.481672167E0,2.886016389E0
1.612777958E1,3.251449513E0,-2.380538902E0,-2.687863294E0,4.843913551E0
1.613777558E1,4.411633578E0,-3.131823375E0,-3.743439501E0,6.579070434E0
1.614777058E1,5.375530706E0,-3.904549296E0,-4.652740007E0,8.111092722E0
1.615776658E1,7.044341256E0,-4.938144942E0,-5.143641243E0,1.002322625E1
1.616776158E1,9.289351054E0,-6.352372400E0,-5.622518265E0,1.258003934E1
1.617775758E1,1.166085659E1,-7.377722595E0,-6.100373193E0,1.508711106E1
1.618775258E1,1.384061556E1,-7.347193113E0,-6.577972598E0,1.699451703E1
1.619774858E1,1.595251525E1,-6.511269901E0,-6.811799244E0,1.852781658E1
1.620774358E1,1.846613853E1,-5.403072846E0,-6.811478816E0,2.041048045E1
1.621773958E1,2.003059148E1,-4.319317153E0,-6.973560126E0,2.164512963E1
1.622773458E1,2.022734327E1,-3.387541996E0,-7.053175229E0,2.168797218E1
1.623773058E1,1.952257018E1,-2.875553069E0,-6.674531763E0,2.083144081E1
1.624772558E1,1.813481541E1,-2.811245099E0,-6.222529714E0,1.937768059E1
1.625772158E1,1.678978624E1,-2.819523587E0,-5.786090029E0,1.798125338E1
1.626771658E1,1.559814708E1,-2.532950086E0,-5.457760684E0,1.671840842E1
1.627771158E1,1.464801664E1,-1.977111427E0,-5.137727369E0,1.564830992E1
1.628770758E1,1.437634915E1,-1.666250931E0,-4.639190547E0,1.519795697E1
1.629770258E1,1.468207550E1,-1.864590240E0,-4.147190326E0,1.537007564E1
1.630769858E1,1.510054786E1,-2.114971669E0,-3.847552684E0,1.572588034E1
1.631769358E1,1.498893621E1,-1.804235280E0,-3.717869919E0,1.554818415E1
1.632768958E1,1.393631460E1,-9.423642448E-1,-3.841572737E0,1.448677314E1
1.633768458E1,1.191532742E1,1.586203426E-2,-3.782079656E0,1.250117617E1
1.634768058E1,9.130490391E0,6.201543765E-1,-3.285267470E0,9.723344516E0
1.635767558E1,6.253008910E0,8.531393885E-1,-2.457593802E0,6.772572225E0
1.636767158E1,3.737055511E0,1.002667018E0,-1.451988777E0,4.132698446E0
1.637766658E1,1.536541269E0,1.196063822E0,-4.744503871E-1,2.004153415E0
1.638766258E1,-3.607059628E-1,1.513295810E0,4.785720894E-1,1.627637627E0
1.639765758E1,-2.008446071E0,1.857010495E0,1.482234377E0,3.111167361E0
1.640765358E1,-3.545121827E0,2.181892614E0,2.512766082E0,4.862359255E0
1.641764858E1,-5.218508992E0,2.500443660E0,3.386542707E0,6.704753993E0
1.642764358E1,-6.966042361E0,2.727837784E0,4.116428125E0,8.538842173E0
1.643763958E1,-8.517617406E0,2.887341641E0,4.679494819E0,1.013825526E1
1.644763458E1,-9.666521607E0,2.839731857E0,4.759868599E0,1.114280333E1
1.645763058E1,-1.071168860E1,2.652953662E0,4.356827333E0,1.186424798E1
1.646762558E1,-1.173061855E1,2.445860048E0,4.020131207E0,1.263926809E1
1.647762158E1,-1.247068193E1,2.292692965E0,3.866403230E0,1.325607116E1
1.648761658E1,-1.290638603E1,2.271544463E0,3.479323986E0,1.355877613E1
1.649761258E1,-1.315925472E1,2.332666870E0,3.119019142E0,1.372354181E1
1.650760758E1,-1.316593224E1,2.393987205E0,2.756575972E0,1.366278367E1
1.651760358E1,-1.326252824E1,1.937164273E0,2.293216291E0,1.359801830E1
1.652759858E1,-1.363527889E1,1.137368229E0,2.151807520E0,1.385080187E1
1.653759458E1,-1.355341085E1,1.820618886E0,2.674807923E0,1.393428133E1
1.654758958E1,-1.406655197E1,2.760998513E0,3.152074914E0,1.467741712E1
1.655758458E1,-1.480847125E1,3.392106332E0,3.062010251E0,1.549751957E1
