"Time (s)","Linear Acceleration x (m/s^2)","Linear Acceleration y (m/s^2)","Linear Acceleration z (m/s^2)","Absolute acceleration (m/s^2)"
2.364037489E-2,-7.072134241E-1,8.552731106E-1,-4.970314568E-1,1.216011180E0
3.363437485E-2,-5.609628662E-1,5.501624742E-1,-4.213544530E-1,8.915703339E-1
4.362937482E-2,-5.706250978E-1,3.738054800E-1,-3.730523586E-1,7.775034414E-1
5.362337502E-2,-6.976391932E-1,3.374971944E-1,-3.468895769E-1,8.490801957E-1
6.361737498E-2,-6.935955513E-1,4.154183596E-1,-2.301440692E-1,8.406030543E-1
7.361137494E-2,-6.893800011E-1,6.403358951E-1,-7.407252789E-3,9.409196097E-1
8.360637492E-2,-7.653707081E-1,8.121028250E-1,2.064037889E-1,1.134859394E0
9.360037488E-2,-6.103013796E-1,8.576114121E-1,2.630136073E-1,1.084961412E0
1.035943748E-1,-2.844211408E-1,6.235289508E-1,2.397539681E-1,7.260617764E-1
1.135893748E-1,-3.227411610E-1,2.659392616E-1,9.016067398E-1,9.938713503E-1
1.235833750E-1,-8.669716349E-1,2.715783164E-1,7.619863397E-1,1.185756206E0
1.335773750E-1,-2.335614744E-1,7.469338524E-1,1.916606194E-1,8.057263402E-1
1.435723749E-1,-1.935045388E-1,1.529312649E0,4.379839343E-1,1.602520238E0
1.535663749E-1,-3.171354353E-2,1.568335797E0,6.076555145E-1,1.682239027E0
1.635603749E-1,6.189716309E-1,1.146731083E0,1.226161122E-1,1.308874619E0
1.735553748E-1,1.028448781E0,8.210712844E-1,1.141287033E0,1.741953226E0
1.835493748E-1,1.169930934E0,2.646022958E-1,-1.622964871E0,2.018109942E0
1.935433750E-1,1.766569856E0,-5.776274309E-1,-3.521953989E0,3.982283566E0
2.035383750E-1,9.032166244E-1,-1.297489552E0,-1.405495226E0,2.115347782E0
2.135323749E-1,7.014105012E-1,-1.265156788E0,-8.772998643E-1,1.691819565E0
2.235263749E-1,1.971827298E-3,-1.312039179E0,-2.346321580E0,2.688247692E0
2.335213749E-1,-2.481976399E-1,-9.140931764E-1,-2.799833965E0,2.955712881E0
2.435153748E-1,2.310163276E-1,6.904509187E-2,-1.729289471E0,1.746017710E0
2.535093748E-1,9.100533351E-1,2.989859703E-1,-1.926038922E0,2.151096375E0
2.635043750E-1,8.224689151E-1,5.973632455E-2,-2.490839024E0,2.623795454E0
2.734983750E-1,7.872562516E-1,-2.764817914E-1,-2.537599207E0,2.671258940E0
2.834923749E-1,9.166430010E-1,-8.333738261E-1,-2.808050473E0,3.069184547E0
2.934873749E-1,1.029190793E0,-1.149709070E0,-2.824384085E0,3.218417327E0
3.034813749E-1,9.797012749E-1,-1.361188827E0,-1.994026837E0,2.605531162E0
3.134753748E-1,1.362212674E0,-2.115427606E0,-1.230524899E0,2.800865733E0
3.234703748E-1,2.092583411E0,-2.732411768E0,-1.479979983E0,3.746374268E0
3.334643750E-1,1.255713243E0,-1.478508239E0,-1.236665645E0,2.300466100E0
3.434583750E-1,1.148447387E0,-1.342465750E0,-6.033920757E0,6.287236705E0
3.534533749E-1,-1.954291791E0,-2.073995697E-1,-1.087177835E1,1.104797879E1
3.634473749E-1,-4.398082656E0,9.049086624E-1,-7.373412028E0,8.633029345E0
3.734413749E-1,-2.249312180E0,-1.191634483E0,-4.311060884E0,5.006460223E0
3.834363748E-1,-5.985913800E-1,-1.815330665E0,-2.828939651E0,3.414181689E0
3.934303748E-1,-6.386489734E-1,-7.949748686E-1,-1.014553311E0,1.438463060E0
4.034243750E-1,-3.329080803E-1,-4.874256510E-1,-1.162900096E-1,6.016102737E-1
4.134193750E-1,-4.820188768E-2,-9.448878300E-1,1.248871708E-1,9.543234455E-1
4.234172916E-1,-2.643688457E-1,-1.074147841E0,-6.933394432E-1,1.305528266E0
4.334112916E-1,-3.079003429E-1,7.356703609E-2,-1.098262051E0,1.142976055E0
4.434062915E-1,4.490818034E-1,1.276775790E0,1.755556333E-1,1.364789605E0
4.534002915E-1,1.369823556E0,2.121917430E0,3.184941528E0,4.064825051E0
4.633952915E-1,8.955884200E-1,2.485595825E0,5.084704233E0,5.730138075E0
4.733892917E-1,9.550912944E-1,2.725611456E0,8.258219132E0,8.748676496E0
4.833832916E-1,1.714853134E0,2.333052786E0,9.723994474E0,1.014593146E1
4.933782916E-1,2.261306719E0,2.153489179E0,1.043140466E1,1.088876608E1
5.033722916E-1,2.551389573E0,2.015026089E0,1.205082845E1,1.248168199E1
5.133662915E-1,1.722945388E0,1.659332067E0,1.542693359E1,1.561128450E1
5.233612915E-1,5.485161176E-1,1.801232589E0,1.904553679E1,1.913838500E1
5.333552915E-1,-9.760626988E-1,1.871303136E0,2.392540078E1,2.401831127E1
5.433492917E-1,-2.003323618E0,8.008033732E-1,2.897211624E1,2.905233400E1
5.533442916E-1,-2.051156766E0,4.166965610E-1,3.052734696E1,3.059901620E1
5.633382916E-1,-1.310987995E0,4.008959225E-1,2.920451031E1,2.923666927E1
5.733322916E-1,-6.069570646E-1,6.817452917E-1,2.549134126E1,2.550767831E1
5.833272915E-1,4.603615209E-2,1.258375772E0,2.105171882E1,2.108934551E1
5.933212915E-1,7.530573490E-1,2.255696754E0,1.663037243E1,1.679954018E1
6.033152917E-1,1.308184986E0,2.662085844E0,1.201993528E1,1.238050455E1
6.133102917E-1,8.780050385E-1,2.169044527E0,7.369717172E0,7.732294498E0
6.233042916E-1,-1.320595702E0,1.432780674E0,2.044324002E0,2.824197955E0
6.332982916E-1,-3.119632223E0,1.564894418E0,-2.734452739E0,4.433760427E0
6.432932916E-1,-3.952468105E0,1.177839732E0,-6.985952130E0,8.112511184E0
6.532872915E-1,-4.348922482E0,6.843850172E-1,-9.280974333E0,1.027219520E1
6.632812915E-1,-4.038327743E0,-2.767440391E-1,-1.086264617E1,1.159231469E1
6.732762915E-1,-2.568490047E0,-1.198347672E0,-1.136844202E1,1.171642659E1
6.832702917E-1,-1.304001888E0,-2.507951485E0,-1.095926790E1,1.131794126E1
6.932652916E-1,-4.674882536E-1,-4.339739138E0,-9.781398345E0,1.071109867E1
7.032592916E-1,-4.722075413E-1,-7.078499520E0,-8.787683925E0,1.129387109E1
7.132532916E-1,-1.541189075E0,-9.591290161E0,-7.346519514E0,1.217946878E1
7.232482915E-1,-2.907697552E0,-1.049102287E1,-5.214622348E0,1.207097975E1
7.332422915E-1,-4.543292409E0,-1.085940915E1,-5.041327248E0,1.280559461E1
7.432362917E-1,-5.413276237E0,-1.114039593E1,-5.879887555E0,1.371076434E1
7.532312917E-1,-5.898877557E0,-1.103944024E1,-7.387728351E0,1.453425359E1
7.632252916E-1,-6.110846726E0,-1.049487267E1,-8.858371500E0,1.503181778E1
7.732192916E-1,-6.149707321E0,-1.053833620E1,-9.890640121E0,1.570669258E1
7.832142916E-1,-6.349129534E0,-1.036141816E1,-9.664327732E0,1.552641822E1
7.932082915E-1,-6.100128779E0,-9.339726571E0,-9.059347903E0,1.437058969E1
8.032032915E-1,-5.291431373E0,-9.946840049E0,-8.742393147E0,1.426072617E1
8.131972917E-1,-5.015249251E0,-9.423254632E0,-8.236651677E0,1.348305914E1
8.231912917E-1,-4.964629321E0,-8.872138769E0,-8.007012223E0,1.294119915E1
8.331862916E-1,-4.574204299E0,-8.702846088E0,-8.093782564E0,1.273468457E1
8.431802916E-1,-4.208022127E0,-8.228348047E0,-8.236385629E0,1.237946728E1
8.531742916E-1,-3.937247803E0,-7.580388844E0,-8.307419944E0,1.191542871E1
8.631692915E-1,-3.834080407E0,-7.162367889E0,-8.245238898E0,1.157513070E1
8.731632915E-1,-3.761588089E0,-6.880094723E0,-7.845639596E0,1.109230855E1
8.831572917E-1,-3.691722633E0,-6.499271414E0,-7.071353638E0,1.028947944E1
8.931522917E-1,-3.575055478E0,-6.475618842E0,-6.152278926E0,9.621080867E0
9.031462916E-1,-3.721120679E0,-6.373932838E0,-5.363739796E0,9.123785592E0
9.131412916E-1,-4.138804542E0,-5.969782648E0,-4.972789695E0,8.803217892E0
9.231352916E-1,-4.514561530E0,-5.517553142E0,-5.057494215E0,8.740875598E0
9.331292915E-1,-4.653126800E0,-5.089971989E0,-5.423431097E0,8.773426282E0
9.431242915E-1,-4.451998369E0,-4.818084648E0,-6.187723578E0,9.017879586E0
9.531182917E-1,-3.994987303E0,-4.196556614E0,-6.528220394E0,8.728612288E0
9.631122916E-1,-3.940667254E0,-3.834756637E0,-6.767224165E0,8.719491944E0
9.731072916E-1,-3.821530820E0,-3.079002260E0,-6.757064043E0,8.351183581E0
9.831012916E-1,-4.272521886E0,-3.241986964E0,-6.231638507E0,8.221814959E0
9.930952915E-1,-4.797058645E0,-2.396035777E0,-5.355550185E0,7.578566941E0
1.003090292E0,-4.914092420E0,-1.934693678E0,-4.346819531E0,6.840042689E0
1.013084291E0,-5.242352768E0,-9.321543485E-1,-3.609536508E0,6.432723224E0
1.023079292E0,-5.240026746E0,6.781162173E-2,-3.276125348E0,6.180248863E0
1.033073292E0,-4.666135101E0,8.519998392E-1,-2.469856875E0,5.347795199E0
1.043067292E0,-2.536369245E0,1.469533055E0,2.152933109E-1,2.939225673E0
1.053062292E0,4.917324176E-1,2.130085698E0,4.901686968E0,5.367084961E0
1.063056292E0,3.261149752E0,3.447012272E0,1.045183951E1,1.147858617E1
1.073050292E0,5.958636686E0,4.668088363E0,1.605082682E1,1.774613878E1
1.083045291E0,8.606505609E0,5.480239720E0,2.107690862E1,2.341668301E1
1.093039292E0,1.012078419E1,6.723109846E0,2.405412138E1,2.694867778E1
1.103033292E0,1.056344882E1,8.424618026E0,2.436660127E1,2.786201531E1
1.113028292E0,1.095563561E1,9.531794157E0,2.349965331E1,2.762453180E1
1.123022292E0,1.153977830E1,9.639230897E0,2.367445933E1,2.804569985E1
1.133017292E0,1.157490252E1,8.843369883E0,2.516646528E1,2.907807652E1
1.143011292E0,1.069104442E1,7.589020504E0,2.632972908E1,2.941336935E1
1.153005291E0,9.287182322E0,6.732880543E0,2.572708697E1,2.816853634E1
1.163000292E0,7.889584930E0,6.309509386E0,2.278295307E1,2.492224729E1
1.172994292E0,7.023595920E0,6.756048966E0,1.883198478E1,2.120421534E1
1.182988292E0,7.343210574E0,7.276116114E0,1.487554349E1,1.811481166E1
1.192983292E0,7.638256398E0,7.846261740E0,1.188934473E1,1.616364137E1
1.202977292E0,7.692503942E0,8.014124776E0,9.631929479E0,1.470288673E1
1.212972292E0,6.908536749E0,7.685661530E0,7.381533226E0,1.269977582E1
1.222966291E0,5.765958066E0,6.849676922E0,5.012619174E0,1.026112554E1
1.232960292E0,4.422110911E0,5.886048766E0,2.794382606E0,7.874592633E0
1.242955292E0,3.409236335E0,4.475762916E0,1.222580872E0,5.757608015E0
1.252949292E0,2.691687958E0,2.790840363E0,3.112794489E-1,3.889841756E0
1.262943292E0,2.385808997E0,1.058930755E0,5.069535971E-4,2.610252703E0
1.272938292E0,2.224564132E0,-8.537993199E-1,-2.709506178E-1,2.398139506E0
1.282932292E0,1.959847523E0,-2.861139683E0,-6.509371895E-1,3.528575041E0
1.292927291E0,1.253657362E0,-4.651102202E0,-1.348421724E0,5.002264449E0
1.302921292E0,3.869777951E-1,-6.127360432E0,-2.597761209E0,6.666532905E0
1.312915292E0,-2.840786402E-1,-7.410940043E0,-4.094241450E0,8.471454777E0
1.322910292E0,-9.789772435E-1,-8.359147922E0,-5.471888727E0,1.003869098E1
1.332904292E0,-1.633154960E0,-9.163852850E0,-6.712487209E0,1.147610033E1
1.342899292E0,-2.437586530E0,-9.771458663E0,-7.801644561E0,1.273926569E1
1.352893292E0,-3.190349618E0,-1.016515754E1,-8.504162963E0,1.363193113E1
1.362887291E0,-3.729728950E0,-1.071049343E1,-8.866129001E0,1.439561708E1
1.372882292E0,-4.221674498E0,-1.122195991E1,-8.945824211E0,1.495936799E1
1.382876292E0,-4.765608811E0,-1.161072257E1,-8.703738958E0,1.527334206E1
1.392870292E0,-5.367057506E0,-1.181963890E1,-8.395662614E0,1.545950584E1
1.402865292E0,-5.737875059E0,-1.185796272E1,-8.805838360E0,1.584541825E1
1.412859292E0,-6.074803319E0,-1.188444009E1,-9.538123183E0,1.640484518E1
1.422854292E0,-6.171605144E0,-1.169986103E1,-1.030709285E1,1.676936556E1
1.432848250E0,-6.074881087E0,-1.132680048E1,-1.094918379E1,1.688446668E1
1.442842250E0,-5.864783027E0,-1.088966147E1,-1.122404736E1,1.670208508E1
1.452837250E0,-5.688576599E0,-1.056149351E1,-1.107294946E1,1.632529506E1
1.462831250E0,-5.609416993E0,-1.028800052E1,-1.043096962E1,1.568800947E1
1.472826250E0,-5.533552294E0,-1.004296710E1,-9.337996965E0,1.478781852E1
1.482820250E0,-5.369309853E0,-9.919249377E0,-8.018287409E0,1.383885579E1
1.492814250E0,-5.371970336E0,-9.780671536E0,-7.130492962E0,1.324248960E1
1.502809250E0,-5.359663702E0,-9.724556977E0,-6.586860366E0,1.291045053E1
1.512803250E0,-5.396995835E0,-9.538978046E0,-6.215548723E0,1.259971080E1
1.522797250E0,-5.213164637E0,-9.282926134E0,-6.082200047E0,1.226144203E1
1.532792250E0,-4.868999863E0,-8.992174505E0,-5.872165722E0,1.179189095E1
1.542786250E0,-4.612383402E0,-8.592979830E0,-5.457278874E0,1.117565549E1
1.552781250E0,-4.619166464E0,-8.209825237E0,-4.997079613E0,1.066342974E1
1.562775250E0,-4.529084260E0,-7.737010608E0,-4.311950245E0,9.948208497E0
1.572769250E0,-4.193633591E0,-6.950221549E0,-3.441337842E0,8.816742506E0
1.582764250E0,-3.972572002E0,-5.927997276E0,-2.510628340E0,7.564769307E0
1.592758250E0,-4.017083931E0,-4.637334933E0,-1.663153954E0,6.356722399E0
1.602753250E0,-3.847597415E0,-3.306998062E0,-1.108915678E0,5.193258710E0
1.612747250E0,-2.828433574E0,-1.743240343E0,-6.245586455E-2,3.323074497E0
1.622741250E0,-8.675724363E-1,1.518983835E-1,2.173023557E0,2.344735898E0
1.632736250E0,1.880870935E0,2.136191946E0,5.617565673E0,6.297462631E0
1.642730250E0,4.851057681E0,3.902566212E0,9.565708008E0,1.141339360E1
1.652725250E0,7.418101712E0,5.886185591E0,1.359186448E1,1.656545181E1
1.662719250E0,9.383422229E0,7.872415166E0,1.708046069E1,2.101822235E1
1.672713250E0,1.144117436E1,9.989316562E0,1.982203066E1,2.497198061E1
1.682708250E0,1.398836885E1,1.230862751E1,2.202442185E1,2.884877697E1
1.692702250E0,1.625132785E1,1.420752132E1,2.363496958E1,3.200892228E1
1.702696250E0,1.791372166E1,1.494024293E1,2.529898892E1,3.441149696E1
1.712691250E0,1.798883733E1,1.476585207E1,2.635319045E1,3.515848834E1
1.722685250E0,1.633065936E1,1.381273252E1,2.572444870E1,3.345488419E1
1.732680250E0,1.327813797E1,1.249371645E1,2.370674532E1,2.990671617E1
1.742674250E0,9.794365715E0,1.121940584E1,2.062217534E1,2.543774328E1
1.752668250E0,6.908419805E0,1.013250435E1,1.712211625E1,2.106088254E1
1.762663250E0,5.126082054E0,9.357137825E0,1.341691345E1,1.714194598E1
1.772657250E0,4.468352154E0,8.628767713E0,9.843731418E0,1.383187809E1
1.782652250E0,4.494415534E0,7.908286080E0,6.858099836E0,1.139185205E1
1.792646250E0,4.594602311E0,7.042851385E0,4.389110103E0,9.485589783E0
1.802640250E0,5.024284953E0,5.689772354E0,2.385885011E0,7.956720180E0
1.812635250E0,5.795920953E0,4.029996337E0,7.640135694E-1,7.100513144E0
1.822629250E0,6.363641154E0,2.005941709E0,-5.429607511E-1,6.694366083E0
1.832624250E0,6.384661310E0,-5.594189090E-1,-1.720368374E0,6.636001575E0
1.842618250E0,5.417889690E0,-3.061422021E0,-2.929117073E0,6.877903773E0
1.852612250E0,4.050618590E0,-5.374717358E0,-4.449876707E0,8.068240226E0
1.862607250E0,2.484231670E0,-7.154112790E0,-6.174475542E0,9.771227406E0
1.872601250E0,7.879424223E-1,-8.429085299E0,-7.998547794E0,1.164676346E1
1.882596250E0,-9.591214147E-1,-9.442807136E0,-9.747045368E0,1.360483054E1
1.892590250E0,-2.407567364E0,-1.035540489E1,-1.102854337E1,1.531860176E1
1.902584250E0,-3.675681381E0,-1.128854566E1,-1.167384209E1,1.664993952E1
1.912579250E0,-4.910484688E0,-1.188892841E1,-1.182255082E1,1.747089541E1
1.922573250E0,-6.168431275E0,-1.223710437E1,-1.183732322E1,1.810851979E1
1.932568250E0,-6.865816991E0,-1.254216765E1,-1.169754670E1,1.847371135E1
1.942562250E0,-7.185347446E0,-1.263363564E1,-1.165949770E1,1.863281659E1
1.952556250E0,-7.273863766E0,-1.239604807E1,-1.152143675E1,1.842049420E1
1.962551250E0,-7.109664595E0,-1.203196300E1,-1.116401868E1,1.788716795E1
1.972545250E0,-6.740912864E0,-1.166715287E1,-1.043804943E1,1.704450757E1
1.982540250E0,-6.472718039E0,-1.120258457E1,-9.413584507E0,1.600029854E1
1.992534250E0,-6.332045724E0,-1.069135549E1,-8.304673507E0,1.494548385E1
2.002528250E0,-6.039369192E0,-1.026554254E1,-7.171028785E0,1.390248171E1
2.012523250E0,-5.549652017E0,-9.904004517E0,-5.930354873E0,1.280847578E1
2.022517250E0,-4.999623737E0,-9.434593552E0,-4.639309537E0,1.164177761E1
2.032512250E0,-4.279893763E0,-8.884767001E0,-3.453629274E0,1.044912104E1
2.042506250E0,-3.613190433E0,-8.358619334E0,-2.702723408E0,9.498756555E0
2.052500250E0,-3.135149564E0,-7.740724760E0,-2.359235741E0,8.678362511E0
2.062495250E0,-3.008374619E0,-7.048005706E0,-2.449140190E0,8.045059972E0
2.072489250E0,-3.188399864E0,-6.434125246E0,-2.876631296E0,7.735558738E0
2.082484250E0,-3.314470219E0,-5.806886821E0,-3.238255856E0,7.429128373E0
2.092478250E0,-3.414095664E0,-5.154795976E0,-3.543375263E0,7.126252803E0
2.102472250E0,-3.555518176E0,-4.489779861E0,-3.675887788E0,6.805290863E0
2.112467250E0,-3.688828261E0,-3.835247803E0,-3.596170358E0,6.422540066E0
2.122461250E0,-3.569602364E0,-3.081394356E0,-3.294787906E0,5.752623711E0
2.132456250E0,-3.185100573E0,-2.113831608E0,-2.857002193E0,4.772380041E0
2.142450250E0,-2.503864866E0,-9.684497702E-1,-2.298428791E0,3.534120701E0
2.152444250E0,-1.735786312E0,3.552592814E-1,-1.653775604E0,2.423661905E0
2.162439250E0,-8.162461621E-1,1.595257255E0,-7.524202949E-1,1.943512235E0
2.172433250E0,3.409675169E-1,2.902433304E0,7.637539530E-1,3.020545983E0
2.182428250E0,1.713432992E0,4.270585288E0,2.814737349E0,5.394116949E0
2.192422250E0,3.383532268E0,5.663211962E0,5.061836942E0,8.315194138E0
2.202417250E0,5.263927240E0,7.120554450E0,7.337745767E0,1.150016255E1
2.212411250E0,7.093566041E0,8.204017197E0,9.887688446E0,1.467620387E1
2.222405250E0,9.102577538E0,9.117920047E0,1.261773355E1,1.803331871E1
2.232400250E0,1.164275010E1,1.030547551E1,1.515170047E1,2.171014700E1
2.242394250E0,1.449956869E1,1.155894664E1,1.769648006E1,2.563224817E1
2.252389250E0,1.701726632E1,1.292290559E1,2.085379525E1,2.985748847E1
2.262383250E0,1.812309174E1,1.355946038E1,2.398541894E1,3.297886811E1
2.272377250E0,1.757162797E1,1.365140551E1,2.701979174E1,3.500274457E1
2.282372250E0,1.630635950E1,1.317291615E1,2.890266535E1,3.570416144E1
2.292366250E0,1.462884362E1,1.228645838E1,2.773307487E1,3.367615724E1
2.302361250E0,1.213330226E1,1.135589389E1,2.344000470E1,2.873338076E1
2.312355250E0,9.050468906E0,1.038352064E1,1.742497629E1,2.221167007E1
2.322349250E0,6.325679276E0,9.370519763E0,1.150536626E1,1.613053972E1
2.332344250E0,4.550634466E0,8.172060410E0,6.945243815E0,1.165020416E1
2.342338250E0,3.409003616E0,6.965654106E0,3.515768804E0,8.514826660E0
2.352333250E0,2.425170406E0,5.466847842E0,1.080740869E0,6.077489421E0
2.362327250E0,1.559099535E0,3.675196062E0,-2.379278827E-1,3.999308332E0
2.372321250E0,8.886300141E-1,1.621338176E0,-9.666149139E-1,2.086323363E0
2.382316250E0,6.808372191E-1,-6.165327573E-1,-1.657834741E0,1.895275175E0
2.392310250E0,5.821824118E-1,-2.759240255E0,-2.379873489E0,3.690005551E0
2.402305250E0,2.050650689E-1,-4.868039165E0,-2.944059632E0,5.692744866E0
2.412299250E0,-3.564763793E-1,-6.773992901E0,-3.420591921E0,7.597006274E0
2.422294250E0,-1.098032255E0,-8.226838295E0,-4.174008581E0,9.290257844E0
2.432284125E0,-1.687521348E0,-9.531564946E0,-5.334956292E0,1.105261133E1
2.442278125E0,-2.435930160E0,-1.041636094E1,-6.663302770E0,1.260293358E1
2.452273125E0,-3.261758155E0,-1.096882693E1,-7.929313252E0,1.392222105E1
2.462267125E0,-4.084602900E0,-1.125518613E1,-8.916642512E0,1.492882143E1
2.472262125E0,-4.681598940E0,-1.158916388E1,-9.508363194E0,1.570461903E1
2.482256125E0,-5.142178270E0,-1.192448884E1,-9.840515449E0,1.629328621E1
2.492250125E0,-5.541661212E0,-1.189597313E1,-9.928061131E0,1.645571583E1
2.502245125E0,-5.728396722E0,-1.186776617E1,-9.706745773E0,1.636701916E1
2.512239125E0,-5.948372483E0,-1.180584766E1,-9.488942252E0,1.627271333E1
2.522234125E0,-6.035545698E0,-1.175214332E1,-9.473545949E0,1.625696028E1
2.532228125E0,-6.079627272E0,-1.143410391E1,-9.693250984E0,1.617589919E1
2.542223125E0,-6.266113690E0,-1.098777658E1,-9.912026896E0,1.606996242E1
2.552217125E0,-6.358585067E0,-1.061165560E1,-1.009879164E1,1.596948438E1
2.562211125E0,-6.453108816E0,-1.025487488E1,-1.017669410E1,1.582308993E1
2.572206125E0,-6.136497291E0,-1.000028828E1,-9.679915824E0,1.521062573E1
2.582200125E0,-5.620672299E0,-9.808061063E0,-8.758865923E0,1.430062066E1
2.592195125E0,-5.006821074E0,-9.643716881E0,-7.665456476E0,1.329769738E1
2.602189125E0,-4.590822963E0,-9.453419833E0,-6.636654085E0,1.242931935E1
2.612184125E0,-4.287536366E0,-9.201558035E0,-5.868230546E0,1.172551782E1
2.622178125E0,-4.269316442E0,-8.869510446E0,-5.440151210E0,1.124680059E1
2.632172125E0,-4.261878199E0,-8.497880715E0,-5.212986882E0,1.084217758E1
2.642167125E0,-4.040361696E0,-7.936101285E0,-5.069344182E0,1.024716920E1
2.652161125E0,-3.723083589E0,-7.367738475E0,-5.024193152E0,9.663717632E0
2.662156125E0,-3.629050421E0,-6.607348425E0,-4.934405063E0,9.009739924E0
2.672150125E0,-3.765265695E0,-5.821680277E0,-4.689433624E0,8.370183673E0
2.682144125E0,-3.796079937E0,-4.997638607E0,-4.316542064E0,7.617030256E0
2.692139125E0,-3.841144720E0,-3.879659160E0,-3.925024198E0,6.723984155E0
2.702133125E0,-3.690542665E0,-2.650284408E0,-3.414265233E0,5.683424996E0
2.712128125E0,-2.969112028E0,-1.251005357E0,-2.497037072E0,4.076252541E0
2.722122125E0,-1.382328558E0,3.760239136E-1,-9.189589369E-1,1.701972900E0
2.732117125E0,1.623944864E0,1.788586085E0,1.625565128E0,2.911820580E0
2.742111125E0,4.922971417E0,3.360304788E0,5.132295306E0,7.865605568E0
2.752105125E0,7.671214229E0,4.915415645E0,8.341613292E0,1.235278718E1
2.762100125E0,9.340486125E0,6.531123537E0,1.028950326E1,1.535493839E1
2.772094125E0,1.070507306E1,8.111813623E0,1.118882140E1,1.748112793E1
2.782089125E0,1.239001608E1,9.173662139E0,1.147742944E1,1.921978049E1
2.792083125E0,1.373864362E1,1.071786326E1,1.123728312E1,2.073401682E1
2.802078125E0,1.451430719E1,1.220147612E1,1.104790467E1,2.194532593E1
2.812072125E0,1.465026080E1,1.352396778E1,1.131982593E1,2.292741383E1
2.822066125E0,1.410479861E1,1.451379380E1,1.183717119E1,2.344598422E1
2.832061125E0,1.321212291E1,1.480042314E1,1.293969528E1,2.368646092E1
2.842055125E0,1.178870947E1,1.460452972E1,1.445305994E1,2.368875052E1
2.852050125E0,1.034644344E1,1.407171155E1,1.547080408E1,2.333254673E1
2.862044125E0,9.113211284E0,1.329069077E1,1.527929139E1,2.220697698E1
2.872039125E0,8.296908404E0,1.219588618E1,1.412054516E1,2.041979736E1
2.882033125E0,7.623259460E0,1.110533836E1,1.242801479E1,1.832752511E1
2.892027125E0,6.979622519E0,9.978727255E0,1.072265681E1,1.622545830E1
2.902022125E0,6.195653572E0,8.750882134E0,9.339557002E0,1.421940176E1
2.912016125E0,5.225315736E0,7.273958491E0,8.374717888E0,1.226174116E1
2.922011125E0,4.179121386E0,5.591347343E0,7.794306305E0,1.046324192E1
2.932005125E0,3.138162634E0,3.804935837E0,7.429742349E0,8.917772862E0
2.942000125E0,2.040405782E0,2.004381672E0,6.911813529E0,7.480238492E0
2.951994125E0,1.050497316E0,1.768431902E-1,5.787188721E0,5.884417679E0
2.961988125E0,1.532561070E-1,-1.584633449E0,4.031895513E0,4.334827797E0
2.971983125E0,-4.120000774E-1,-3.192664531E0,1.811954482E0,3.694053318E0
2.981977125E0,-7.749741751E-1,-4.570503597E0,-4.196675313E-1,4.654697513E0
2.991972125E0,-1.258711987E0,-5.715112433E0,-2.583241988E0,6.396874640E0
3.001966125E0,-1.735516171E0,-6.723129727E0,-4.481385013E0,8.264097128E0
3.011961125E0,-2.314246679E0,-7.507721987E0,-5.976633246E0,9.871259903E0
3.021955125E0,-2.942545788E0,-8.358201842E0,-7.279862425E0,1.146797762E1
3.031949125E0,-3.678916938E0,-8.999537904E0,-8.245639433E0,1.274820309E1
3.041944125E0,-4.487335725E0,-9.430066053E0,-8.994780609E0,1.378290267E1
3.051938125E0,-5.226616741E0,-9.704131483E0,-9.592183031E0,1.461155932E1
3.061933125E0,-5.887798837E0,-9.863237729E0,-9.959411563E0,1.520327308E1
3.071927125E0,-6.539389746E0,-9.906737505E0,-1.017965162E1,1.563753092E1
3.081922125E0,-7.069173211E0,-9.890255374E0,-1.027234753E1,1.591576216E1
3.091916125E0,-7.376183023E0,-9.886598525E0,-1.028925183E1,1.606305107E1
3.101910125E0,-7.549872226E0,-9.712577786E0,-1.014167980E1,1.594328721E1
3.111905125E0,-7.468642121E0,-9.487600901E0,-9.976945024E0,1.566316117E1
3.121899125E0,-7.138533468E0,-9.283765794E0,-9.720634080E0,1.521964830E1
3.131894125E0,-6.631966372E0,-9.078388191E0,-9.380467631E0,1.464217481E1
3.141888125E0,-5.993914107E0,-8.878908091E0,-8.929722149E0,1.394639569E1
3.151883125E0,-5.358236981E0,-8.697464896E0,-8.392675856E0,1.322095334E1
3.161877125E0,-4.827361840E0,-8.513623173E0,-7.742396479E0,1.247917886E1
3.171871125E0,-4.405502188E0,-8.361942306E0,-7.058573379E0,1.179635481E1
3.181866125E0,-4.187937818E0,-8.234203448E0,-6.376827210E0,1.122518841E1
3.191860125E0,-4.087851320E0,-8.036106214E0,-5.713801487E0,1.067413036E1
3.201855125E0,-3.835900060E0,-7.767844731E0,-5.235972286E0,1.012269464E1
3.211849125E0,-3.582294038E0,-7.368799160E0,-4.946980085E0,9.571031480E0
3.221844125E0,-3.384832104E0,-6.887682654E0,-4.724937918E0,9.012341485E0
3.231838125E0,-3.414835922E0,-6.352788137E0,-4.543554364E0,8.524254088E0
3.241833125E0,-3.618570457E0,-5.836856725E0,-4.425020778E0,8.169685273E0
3.251827125E0,-3.667462535E0,-5.290338528E0,-4.057158408E0,7.609106225E0
3.261821125E0,-3.286018837E0,-4.597893124E0,-3.808197414E0,6.814756674E0
3.271816125E0,-2.361139010E0,-3.550878410E0,-3.525085757E0,5.532625462E0
3.281810125E0,-1.348535745E0,-2.127336922E0,-2.890346525E0,3.833824992E0
3.291805125E0,-5.310125506E-1,-7.976830065E-1,-1.761109434E0,2.004938639E0
3.301799125E0,6.006026030E-1,4.476026040E-1,3.593114018E-2,7.499084108E-1
3.311794125E0,1.897651275E0,1.949628929E0,2.249641378E0,3.530300221E0
3.321788125E0,3.708117056E0,3.818860397E0,4.513501430E0,6.978934159E0
3.331782125E0,6.148242009E0,5.711557326E0,6.626415026E0,1.069262096E1
3.341777125E0,8.210393586E0,7.321013374E0,8.764984449E0,1.406530313E1
3.351771125E0,8.744347286E0,8.509814882E0,1.137133522E1,1.667896350E1
3.361766125E0,7.824307199E0,9.853872828E0,1.407477666E1,1.887903416E1
3.371760125E0,6.973207539E0,1.189921951E1,1.675124607E1,2.169841684E1
3.381755125E0,7.086596160E0,1.431910608E1,1.914573468E1,2.493623469E1
3.391749125E0,8.310325425E0,1.565279048E1,2.141832053E1,2.779956497E1
3.401744125E0,9.784987950E0,1.605734647E1,2.359092835E1,3.016813327E1
3.411738125E0,9.801285310E0,1.616711625E1,2.494226199E1,3.129787971E1
3.421732125E0,8.243392348E0,1.601011851E1,2.495413417E1,3.077314128E1
3.431726625E0,6.809338735E0,1.524284453E1,2.314830816E1,2.854042000E1
3.441720625E0,5.812855659E0,1.371414379E1,1.989626457E1,2.485414200E1
3.451715625E0,5.764530176E0,1.196865519E1,1.596151645E1,2.076652409E1
3.461709625E0,6.007457428E0,1.060624693E1,1.248512689E1,1.744879400E1
3.471704625E0,5.444065336E0,9.042826011E0,1.023735194E1,1.470421451E1
3.481698625E0,4.592140926E0,7.038487024E0,9.223338329E0,1.247790158E1
3.491693625E0,4.117760705E0,4.681479072E0,8.852737123E0,1.082788779E1
3.501687625E0,3.660112585E0,1.963525422E0,8.820684441E0,9.749683596E0
3.511681625E0,3.103210025E0,-1.088241093E0,8.501698362E0,9.115539269E0
3.521676625E0,2.553012468E0,-4.176809397E0,7.095831252E0,8.620581800E0
3.531670625E0,1.812974821E0,-7.041467350E0,4.627867706E0,8.618950031E0
3.541665625E0,9.318979481E-1,-9.335387937E0,1.031344761E0,9.438303542E0
3.551659625E0,-9.175977051E-2,-1.076189046E1,-3.603957095E0,1.134967897E1
3.561654625E0,-1.490352944E0,-1.184736757E1,-8.296209077E0,1.453988842E1
3.571648625E0,-3.027236860E0,-1.273491877E1,-1.189060071E1,1.768413708E1
3.581643625E0,-4.572540182E0,-1.341084872E1,-1.381301202E1,1.978783182E1
3.591637625E0,-5.791826148E0,-1.424317063E1,-1.429332220E1,2.099314695E1
3.601631625E0,-6.367653514E0,-1.487974179E1,-1.351038236E1,2.108279295E1
3.611626625E0,-6.702334104E0,-1.517804335E1,-1.261684127E1,2.084415903E1
3.621620625E0,-6.624588940E0,-1.519847937E1,-1.195985046E1,2.044301780E1
3.631615625E0,-6.611026908E0,-1.486312284E1,-1.153993617E1,1.994462895E1
3.641609625E0,-6.517760895E0,-1.442834727E1,-1.110268489E1,1.933721862E1
3.651604625E0,-6.176488738E0,-1.392038678E1,-1.065161314E1,1.858448395E1
3.661598625E0,-5.660049203E0,-1.321380456E1,-1.000574490E1,1.751444316E1
3.671593625E0,-4.871744546E0,-1.238121251E1,-9.105402328E0,1.612255159E1
3.681587625E0,-3.930021229E0,-1.153109986E1,-8.144407173E0,1.465410178E1
3.691581625E0,-3.012785174E0,-1.065440928E1,-7.169600894E0,1.319077286E1
3.701576625E0,-2.219125052E0,-9.778102269E0,-6.243145242E0,1.181154785E1
3.711570625E0,-1.596919326E0,-9.022218084E0,-5.431399097E0,1.065132230E1
3.721565625E0,-9.733930063E-1,-8.372357951E0,-4.804506243E0,9.701914855E0
3.731559625E0,-3.626779363E-1,-7.776830147E0,-4.373406236E0,8.929574711E0
3.741554625E0,-2.601271293E-1,-7.223121629E0,-4.094197011E0,8.306840636E0
3.751548625E0,-3.922587079E-1,-6.909841263E0,-4.139820496E0,8.064607052E0
3.761543625E0,-8.310387406E-1,-6.700132043E0,-4.091932384E0,7.894701097E0
3.771537625E0,-1.084975130E0,-6.520433072E0,-4.000116481E0,7.726198958E0
3.781532625E0,-1.067922311E0,-6.333147340E0,-3.897103159E0,7.512431452E0
3.791526625E0,-7.997590604E-1,-6.086637499E0,-3.707591391E0,7.171680732E0
3.801520625E0,-5.570387998E-1,-5.605664835E0,-3.579469541E0,6.674306905E0
3.811515625E0,-6.455989739E-1,-5.153011406E0,-3.378438174E0,6.195495870E0
3.821509625E0,-7.329321098E-1,-4.858480137E0,-2.990920388E0,5.752184236E0
3.831504625E0,-1.017475750E0,-4.477414169E0,-2.572929254E0,5.263312597E0
3.841498625E0,-1.624366449E0,-3.818707784E0,-2.168584936E0,4.682291760E0
3.851493625E0,-2.278749110E0,-2.870219824E0,-1.912580971E0,4.133863243E0
3.861487625E0,-2.679410267E0,-1.762043819E0,-1.558340274E0,3.565453997E0
3.871482625E0,-2.833231507E0,-2.230747855E-1,-6.378084362E-1,2.912689948E0
3.881476625E0,-2.400398385E0,1.804544891E0,8.798995364E-1,3.129299900E0
3.891471625E0,-8.645207745E-1,4.153510582E0,2.982454789E0,5.185950529E0
3.901465625E0,1.794087145E0,6.625719207E0,5.617618298E0,8.869979652E0
3.911459625E0,5.435495072E0,8.779673240E0,8.728722941E0,1.352101598E1
3.921454625E0,8.393764608E0,1.091239545E1,1.185402872E1,1.816737888E1
3.931448625E0,9.410950921E0,1.310978026E1,1.435014310E1,2.159534539E1
3.941443625E0,9.687779744E0,1.527492937E1,1.596754727E1,2.412755913E1
3.951437625E0,1.087101470E1,1.690675862E1,1.772521678E1,2.679926786E1
3.961432625E0,1.308193933E1,1.745759674E1,1.949210853E1,2.925486482E1
3.971426625E0,1.552126087E1,1.710397819E1,2.072503020E1,3.103195910E1
3.981421625E0,1.589459156E1,1.652719129E1,2.088877329E1,3.101817117E1
3.991415625E0,1.358600089E1,1.611128703E1,1.988921516E1,2.897816195E1
4.001409625E0,1.075152802E1,1.517749137E1,1.774409160E1,2.570611572E1
4.011404625E0,8.424953656E0,1.373164334E1,1.496952579E1,2.199146596E1
4.021398625E0,6.293875101E0,1.198161964E1,1.211520396E1,1.816453247E1
4.031393625E0,4.407873526E0,1.030401020E1,9.794259880E0,1.488386717E1
4.041387625E0,3.061338699E0,8.219462033E0,8.157808991E0,1.197836376E1
4.051382625E0,1.824620136E0,5.947940374E0,6.805556172E0,9.220782404E0
4.061376625E0,5.194344789E-1,3.922750216E0,5.531370113E0,6.801017333E0
4.071371625E0,-3.228464109E-1,1.936596655E0,4.412307177E0,4.829398620E0
4.081365625E0,-3.796567887E-1,-1.623520356E-1,2.960907215E0,2.989560000E0
4.091360625E0,-3.032412815E-1,-2.096886377E0,9.595310122E-1,2.325851998E0
4.101354625E0,-5.123570091E-1,-3.664169383E0,-1.147647634E0,3.873724573E0
4.111349625E0,-8.300479299E-1,-5.014790245E0,-2.880261832E0,5.842346188E0
4.121343625E0,-1.285623797E0,-6.117579795E0,-4.256866550E0,7.562970575E0
4.131337625E0,-1.700247520E0,-7.119424183E0,-5.423725212E0,9.110095361E0
4.141332625E0,-2.435486941E0,-7.912237043E0,-6.330884467E0,1.042186115E1
4.151326625E0,-3.583280171E0,-8.514820683E0,-6.866934979E0,1.151072822E1
4.161321625E0,-4.709053956E0,-9.001204945E0,-7.264307662E0,1.248867669E1
4.171315625E0,-5.454870991E0,-9.517494206E0,-7.809335988E0,1.346566159E1
4.181310625E0,-6.071390884E0,-9.768429220E0,-8.239701585E0,1.414838079E1
4.191304625E0,-6.695598696E0,-9.743551657E0,-8.458459371E0,1.453662188E1
4.201299625E0,-7.122733122E0,-9.624384232E0,-8.556409589E0,1.471646167E1
4.211293625E0,-7.403128163E0,-9.349348750E0,-8.532231352E0,1.466341026E1
4.221288625E0,-7.524710487E0,-8.976528525E0,-8.506677850E0,1.447628752E1
4.231282625E0,-7.561536836E0,-8.622099549E0,-8.444050078E0,1.424146838E1
4.241277625E0,-7.618865277E0,-8.142564130E0,-8.214332271E0,1.385004380E1
4.251271625E0,-7.336882718E0,-7.739979240E0,-7.921349344E0,1.328476203E1
4.261265625E0,-6.871252563E0,-7.334448522E0,-7.713197823E0,1.266892527E1
4.271260625E0,-6.336142284E0,-6.999635784E0,-7.454816964E0,1.202979202E1
4.281254625E0,-5.799525762E0,-6.727795805E0,-7.045233541E0,1.133724178E1
4.291249625E0,-5.238574297E0,-6.515927793E0,-6.576109675E0,1.063697298E1
4.301243625E0,-4.651798898E0,-6.436343095E0,-6.042611473E0,9.978922729E0
4.311238625E0,-4.101475040E0,-6.289192066E0,-5.615609779E0,9.376092338E0
4.321232625E0,-3.680253027E0,-6.187233582E0,-5.485994550E0,9.051091533E0
4.331227625E0,-3.467424610E0,-6.102761196E0,-5.442582482E0,8.881915993E0
4.341221625E0,-3.460856140E0,-5.966419330E0,-5.494164864E0,8.818249962E0
4.351216625E0,-3.597748229E0,-5.905767916E0,-5.654310746E0,8.932699312E0
4.361210625E0,-3.736559667E0,-5.810702130E0,-5.793677377E0,9.016253930E0
4.371205625E0,-3.879984266E0,-5.671872858E0,-5.703240831E0,8.930362568E0
4.381199625E0,-3.759711717E0,-5.430128497E0,-5.291996799E0,8.463271106E0
4.391194625E0,-3.395427551E0,-5.292511353E0,-4.660661230E0,7.826964149E0
4.401188625E0,-2.856869169E0,-4.963238268E0,-3.797318085E0,6.871321575E0
4.411182625E0,-2.298283488E0,-4.345806209E0,-2.968930764E0,5.743055674E0
4.421177625E0,-1.725040884E0,-3.509844405E0,-2.348270457E0,4.561704499E0
4.431172250E0,-1.063303303E0,-2.349993047E0,-1.681690797E0,3.079150073E0
4.441167250E0,-4.852189118E-1,-1.179354161E0,-9.044134033E-1,1.563418445E0
4.451161250E0,-1.025461292E-1,3.660064638E-2,4.550735915E-1,4.679180373E-1
4.461156250E0,3.065762410E-1,1.431735776E0,2.260703725E0,2.693443457E0
4.471150250E0,1.144968440E0,2.840915333E0,4.546294954E0,5.481838238E0
4.481145250E0,2.683075009E0,4.292531058E0,7.226190248E0,8.822841939E0
4.491139250E0,4.751150985E0,5.570264622E0,9.803435331E0,1.223554772E1
4.501134250E0,7.158529192E0,6.482015696E0,1.216232550E1,1.553007499E1
4.511128250E0,9.260314951E0,7.783890660E0,1.457256417E1,1.893943012E1
4.521123250E0,1.044048421E1,9.786800587E0,1.653089960E1,2.186448760E1
4.531117250E0,1.146137766E1,1.172283474E1,1.763319564E1,2.407732587E1
4.541112250E0,1.331347036E1,1.311347102E1,1.863545518E1,2.639113118E1
4.551106250E0,1.510135360E1,1.383251482E1,1.992935513E1,2.857566347E1
4.561100250E0,1.553979421E1,1.420717634E1,2.112352029E1,2.982502595E1
4.571095250E0,1.451131575E1,1.421326680E1,2.149855602E1,2.957673324E1
4.581089250E0,1.241055852E1,1.389630678E1,2.001773696E1,2.734664692E1
4.591084250E0,1.002846601E1,1.329436049E1,1.716224452E1,2.391344367E1
4.601078250E0,8.128760608E0,1.243719375E1,1.356505149E1,2.011892540E1
4.611073250E0,6.851603580E0,1.117895481E1,9.965416653E0,1.646885033E1
4.621067250E0,5.535962516E0,1.010308350E1,6.658307494E0,1.330609769E1
4.631062250E0,4.157597201E0,8.764764594E0,4.014707623E0,1.049878994E1
4.641056250E0,3.135840704E0,6.748701355E0,2.500593933E0,7.850569210E0
4.651051250E0,2.275753581E0,4.495345826E0,2.334136568E0,5.552961550E0
4.661045250E0,1.674730856E0,2.180153652E0,2.493967869E0,3.711828271E0
4.671040250E0,9.613293234E-1,-1.672449857E-1,2.610471302E0,2.786877351E0
4.681034250E0,2.087695724E-1,-2.349941007E0,2.714992620E0,3.596803080E0
4.691029250E0,-3.785806087E-1,-4.256591147E0,2.424112353E0,4.913065455E0
4.701023250E0,-7.985574576E-1,-5.910793013E0,1.423886474E0,6.132097581E0
4.711018250E0,-1.441400639E0,-7.303766427E0,-2.131450438E-1,7.447688946E0
4.721012250E0,-2.417527218E0,-8.464117137E0,-2.056822425E0,9.039703272E0
4.731007250E0,-3.585669051E0,-9.329177025E0,-3.847081983E0,1.070937002E1
4.741001250E0,-4.774086689E0,-9.967498262E0,-5.415134482E0,1.230717704E1
4.750996250E0,-5.746987360E0,-1.042355536E1,-6.740780132E0,1.367905284E1
4.760990250E0,-6.465017256E0,-1.074779048E1,-7.728365500E0,1.473224632E1
4.770985250E0,-7.136244868E0,-1.084201485E1,-8.376967896E0,1.544826424E1
4.780979250E0,-7.580304644E0,-1.083976250E1,-8.707796341E0,1.583626177E1
4.790973250E0,-7.735975066E0,-1.061197135E1,-8.777020358E0,1.579542125E1
4.800968250E0,-7.807579485E0,-1.033225459E1,-8.744817402E0,1.562643957E1
4.810962250E0,-7.713562689E0,-1.006525084E1,-8.660491197E0,1.535618545E1
4.820957250E0,-7.656587420E0,-9.849066417E0,-8.603422957E0,1.515408614E1
4.830951250E0,-7.642451191E0,-9.743102590E0,-8.521422189E0,1.503162481E1
4.840946250E0,-7.658367312E0,-9.625688746E0,-8.555533091E0,1.498337813E1
4.850940250E0,-7.669397500E0,-9.552060022E0,-8.624101635E0,1.498120949E1
4.860935250E0,-7.689139454E0,-9.491735467E0,-8.518903209E0,1.489253570E1
4.870929250E0,-7.589539737E0,-9.359336379E0,-8.315940506E0,1.464080453E1
4.880924250E0,-7.309335315E0,-9.193729783E0,-8.107628771E0,1.427181468E1
4.890918250E0,-6.894605173E0,-8.979375535E0,-7.864950026E0,1.378485417E1
4.900913250E0,-6.434619920E0,-8.678732756E0,-7.634421210E0,1.322910137E1
4.910907250E0,-5.881214288E0,-8.308054951E0,-7.323858629E0,1.253999058E1
4.920902250E0,-5.422259315E0,-7.935508377E0,-6.995977181E0,1.188767791E1
4.930896250E0,-5.037442943E0,-7.645312234E0,-6.609100835E0,1.129189286E1
4.940891250E0,-4.805861628E0,-7.381339098E0,-6.251798537E0,1.080117854E1
4.950885250E0,-4.607865258E0,-7.203679052E0,-5.845743324E0,1.035848102E1
4.960880250E0,-4.395885857E0,-6.951062379E0,-5.535383642E0,9.913705297E0
4.970874250E0,-4.300683246E0,-6.548854049E0,-5.212978111E0,9.410552934E0
4.980869250E0,-4.040303517E0,-5.877567379E0,-4.983779536E0,8.701029208E0
4.990863250E0,-3.640619137E0,-5.220184219E0,-5.046597928E0,8.122350746E0
5.000858250E0,-3.369187294E0,-4.070564319E0,-5.045889831E0,7.306293252E0
5.010852250E0,-3.083278036E0,-2.721845557E0,-4.806290814E0,6.325778851E0
5.020847250E0,-2.423967342E0,-1.377865378E0,-3.723503419E0,4.651731762E0
5.030841250E0,-1.238144698E0,2.650724119E-1,-1.485562320E0,1.951963392E0
5.040836250E0,5.195619482E-1,2.022896295E0,1.864220404E0,2.799530631E0
5.050830250E0,3.458845575E0,4.003860453E0,6.998554049E0,8.773498163E0
5.060825250E0,7.632693942E0,6.043620118E0,1.256374153E1,1.589436889E1
5.070819250E0,1.226168373E1,8.013674541E0,1.737437800E1,2.272524760E1
5.080814250E0,1.630668694E1,9.556852984E0,2.108221322E1,2.831432839E1
5.090808250E0,1.843029042E1,1.144323024E1,2.321048043E1,3.177026165E1
5.100802250E0,1.836151079E1,1.393297350E1,2.324706763E1,3.273681387E1
5.110797250E0,1.812609370E1,1.540992287E1,2.271377584E1,3.289280481E1
5.120791250E0,1.782553629E1,1.557532189E1,2.245626446E1,3.262857964E1
5.130786250E0,1.624779613E1,1.512327716E1,2.271699414E1,3.176108017E1
5.140780250E0,1.318988945E1,1.454049687E1,2.216858379E1,2.961157443E1
5.150775250E0,9.523069527E0,1.407293596E1,2.011514456E1,2.633164295E1
5.160769250E0,6.824407010E0,1.331191617E1,1.737083459E1,2.292434377E1
5.170764250E0,4.804220315E0,1.237430344E1,1.432671214E1,1.953096514E1
5.180758250E0,3.707684654E0,1.092573295E1,1.103440696E1,1.596485837E1
5.190753250E0,3.178928544E0,9.131487342E0,8.168329886E0,1.265745871E1
5.200747250E0,3.099507568E0,7.473111148E0,6.353891507E0,1.028718983E1
5.210742250E0,3.450403657E0,5.710116572E0,5.064731314E0,8.376289151E0
5.220736250E0,3.836141258E0,3.947808459E0,3.917835631E0,6.756523323E0
5.230731250E0,3.994619221E0,2.044010006E0,2.640964531E0,5.206693123E0
5.240725250E0,3.700274478E0,2.844319582E-2,1.569782690E0,4.019584297E0
5.250720250E0,2.699498084E0,-2.023678653E0,6.790277982E-1,3.441459566E0
5.260714250E0,1.339449171E0,-4.010815716E0,-1.645552665E-1,4.231766206E0
5.270709250E0,-2.599233538E-1,-5.852584566E0,-1.206507461E0,5.981301406E0
5.280703250E0,-1.639775031E0,-7.564084468E0,-2.377408887E0,8.096685063E0
5.290698250E0,-2.870081537E0,-8.949469365E0,-3.884167948E0,1.016942135E1
5.300692250E0,-3.917132796E0,-9.963271894E0,-5.458543042E0,1.201692175E1
5.310687250E0,-4.823051857E0,-1.074416988E1,-6.859103218E0,1.362887789E1
5.320681250E0,-5.740653656E0,-1.144784019E1,-8.001402989E0,1.510068208E1
5.330676250E0,-6.533981071E0,-1.193421626E1,-8.783702556E0,1.619480957E1
5.340670250E0,-7.038017492E0,-1.225449867E1,-9.320780423E0,1.692877360E1
5.350665250E0,-7.315197149E0,-1.232615981E1,-9.679587210E0,1.729568540E1
5.360659250E0,-7.484262958E0,-1.214493003E1,-9.876680478E0,1.735114794E1
5.370654250E0,-7.608299358E0,-1.183464169E1,-9.953234564E0,1.723403149E1
5.380648250E0,-7.639213588E0,-1.161103481E1,-9.944913976E0,1.709020268E1
5.390643250E0,-7.619333639E0,-1.139081229E1,-9.841338737E0,1.687177519E1
5.400637250E0,-7.538167269E0,-1.105627087E1,-9.594471631E0,1.646569091E1
5.410632250E0,-7.318126019E0,-1.068535859E1,-9.169625806E0,1.586864500E1
5.420626250E0,-6.995151554E0,-1.036282266E1,-8.636959078E0,1.519596331E1
5.430621250E0,-6.597633276E0,-1.006084555E1,-8.120216657E0,1.451507136E1
5.440615250E0,-6.237074078E0,-9.718143750E0,-7.609144281E0,1.382904508E1
5.450610250E0,-5.866413816E0,-9.366733106E0,-7.183231339E0,1.318140025E1
5.460604250E0,-5.460784864E0,-8.997103708E0,-6.827670341E0,1.254532298E1
5.470599250E0,-5.101945333E0,-8.629674032E0,-6.587526948E0,1.199569220E1
5.480593250E0,-4.821671914E0,-8.273429495E0,-6.428768612E0,1.153374274E1
5.490588250E0,-4.555034495E0,-7.908873140E0,-6.349666893E0,1.111831297E1
5.500582250E0,-4.370578523E0,-7.562664179E0,-6.276322344E0,1.075583880E1
5.510577250E0,-4.329244555E0,-7.213948517E0,-6.042059496E0,1.035808354E1
5.520571250E0,-4.124311633E0,-6.834480008E0,-5.630968076E0,9.768718693E0
5.530566250E0,-4.059880579E0,-6.436313859E0,-5.145227593E0,9.185974820E0
5.540560250E0,-4.020682015E0,-5.861887486E0,-4.348166145E0,8.332716099E0
5.550555250E0,-3.880224586E0,-5.180885668E0,-3.754235800E0,7.482780605E0
5.560549250E0,-3.639115526E0,-4.241570234E0,-3.259172516E0,6.469643371E0
5.570544250E0,-3.273037141E0,-3.098888640E0,-2.840162796E0,5.327514209E0
5.580538250E0,-2.901516753E0,-1.639653994E0,-2.338429009E0,4.071303835E0
5.590533250E0,-2.078239314E0,6.075023174E-2,-9.911521697E-1,2.303291528E0
5.600527250E0,-8.843504369E-1,1.984591185E0,1.044176475E0,2.410597930E0
5.610522250E0,9.743443483E-1,4.140730907E0,4.236725231E0,6.003735507E0
5.620516250E0,3.852395348E0,6.228216716E0,8.585716419E0,1.128477558E1
5.630511250E0,8.005056329E0,7.758207350E0,1.359656447E1,1.758230001E1
5.640505250E0,1.310338224E1,8.661225023E0,1.813776475E1,2.399362321E1
5.650500250E0,1.661713550E1,9.886786805E0,2.113642860E1,2.864657675E1
5.660494250E0,1.775226717E1,1.163407401E1,2.230949233E1,3.079298809E1
5.670489250E0,1.777940176E1,1.297047736E1,2.183233848E1,3.099986151E1
5.680483250E0,1.786920213E1,1.343773889E1,2.083060051E1,3.055806160E1
5.690478250E0,1.769484167E1,1.314304975E1,2.084735863E1,3.033907613E1
5.700472250E0,1.651978521E1,1.235668227E1,2.131325308E1,2.966219238E1
5.710467250E0,1.417885710E1,1.127808382E1,2.098796312E1,2.772597626E1
5.720461250E0,1.101491585E1,1.028600779E1,1.949265934E1,2.463927953E1
5.730456250E0,8.088302554E0,9.546761275E0,1.674946384E1,2.090707603E1
5.740450250E0,6.335984409E0,8.962948952E0,1.330332076E1,1.724695612E1
5.750445250E0,5.826912950E0,8.410854265E0,9.911364992E0,1.424536907E1
5.760439250E0,5.955013751E0,7.802453815E0,7.039233713E0,1.207854650E1
5.770434250E0,6.103172255E0,6.874484319E0,4.913122367E0,1.042334004E1
5.780428250E0,5.929998193E0,5.754526759E0,3.309230529E0,8.901149560E0
5.790423250E0,5.699021480E0,4.553962408E0,1.970369003E0,7.556439205E0
5.800417250E0,5.239533826E0,3.080157670E0,6.802241385E-1,6.115782113E0
5.810412250E0,4.509646653E0,1.279906974E0,-5.200805962E-1,4.716519758E0
5.820406250E0,3.405830040E0,-6.320062441E-1,-1.721951215E0,3.868362204E0
5.830401250E0,2.063747867E0,-2.428881927E0,-2.805085350E0,4.245824595E0
5.840395250E0,6.463541418E-1,-4.203178001E0,-3.730068673E0,5.656667861E0
5.850390250E0,-7.426218233E-1,-5.891362715E0,-4.591159471E0,7.505890161E0
5.860384250E0,-2.050600988E0,-7.530705053E0,-5.459425972E0,9.524799995E0
5.870379250E0,-3.138258236E0,-9.029644632E0,-6.211496603E0,1.140025601E1
5.880373250E0,-4.330915689E0,-1.023699877E1,-6.743307883E0,1.300096826E1
5.890368250E0,-5.465694187E0,-1.125963235E1,-6.955632563E0,1.431900688E1
5.900362250E0,-6.761999677E0,-1.195432835E1,-7.145149593E0,1.548172369E1
5.910357250E0,-7.821623912E0,-1.230137229E1,-7.257435429E0,1.628410052E1
5.920352250E0,-8.534422889E0,-1.246780977E1,-7.570183699E0,1.689941821E1
5.930346250E0,-8.976351939E0,-1.239604807E1,-7.954158656E0,1.724834896E1
5.940341250E0,-9.094265721E0,-1.209432940E1,-8.346484022E0,1.728126929E1
5.950335250E0,-8.847299212E0,-1.178033509E1,-8.785267271E0,1.715318977E1
5.960330250E0,-8.582095238E0,-1.145145844E1,-9.009025011E0,1.691007956E1
5.970324250E0,-8.310765721E0,-1.105356828E1,-9.016690711E0,1.650911597E1
5.980319250E0,-8.084668509E0,-1.062774246E1,-8.929412246E0,1.606378467E1
5.990313250E0,-7.833737004E0,-1.027008466E1,-8.625633021E0,1.553201916E1
6.000308250E0,-7.768543473E0,-9.956821246E0,-8.277430159E0,1.509981480E1
6.010302250E0,-7.726990235E0,-9.632698388E0,-7.920306201E0,1.467060008E1
6.020297250E0,-7.634534646E0,-9.314566587E0,-7.469710992E0,1.417193890E1
6.030291250E0,-7.438430142E0,-8.940426646E0,-6.941741332E0,1.354434363E1
6.040286250E0,-7.085813218E0,-8.526761282E0,-6.343140231E0,1.277301198E1
6.050280250E0,-6.511704349E0,-8.088343484E0,-5.734388364E0,1.186198987E1
6.060275250E0,-5.714911873E0,-7.552986453E0,-5.141100043E0,1.077676815E1
6.070269250E0,-4.719959013E0,-6.895237842E0,-4.632683473E0,9.554269943E0
6.080264250E0,-3.664910225E0,-6.123029984E0,-4.147981455E0,8.254018009E0
6.090258250E0,-2.707453220E0,-5.315480386E0,-3.586873285E0,6.960624587E0
6.100253250E0,-1.802128821E0,-4.555424797E0,-2.931111558E0,5.708850877E0
6.110247250E0,-1.153060986E0,-3.556732643E0,-2.094945686E0,4.285871459E0
6.120242250E0,-4.764679688E-1,-2.572051002E0,-1.152652851E0,2.858509520E0
6.130236250E0,8.824033141E-2,-1.553014630E0,-4.327120847E-1,1.614583707E0
6.140231250E0,5.695199740E-1,-3.107169467E-1,5.223493159E-1,8.329146592E-1
6.150225250E0,1.109136118E0,9.979320163E-1,1.457276414E0,2.085594827E0
6.160220250E0,1.601497988E0,2.191737571E0,2.557550492E0,3.729554116E0
6.170214250E0,1.735562949E0,3.729189836E0,4.099495173E0,5.807314031E0
6.180209250E0,2.129333162E0,5.478797797E0,5.954396870E0,8.366966421E0
6.190203250E0,3.297510955E0,7.057416800E0,8.328743570E0,1.140388880E1
6.200198250E0,5.173452687E0,7.963923506E0,1.083613723E1,1.440869739E1
6.210192250E0,7.453887257E0,8.450586680E0,1.315848640E1,1.732393185E1
6.220187250E0,9.304226956E0,9.462867179E0,1.541197407E1,2.033822606E1
6.230181250E0,1.053094181E1,1.136477230E1,1.687579411E1,2.290963142E1
6.240176250E0,1.223843052E1,1.292427617E1,1.783378087E1,2.519642507E1
6.250170250E0,1.432738574E1,1.352726678E1,1.935403706E1,2.761955248E1
6.260165250E0,1.526610943E1,1.340321225E1,2.133209281E1,2.945773887E1
6.270159250E0,1.492459929E1,1.298756410E1,2.314780530E1,3.045063834E1
6.280154250E0,1.398574228E1,1.245372851E1,2.343177182E1,2.999573755E1
6.290149250E0,1.293189393E1,1.191039705E1,2.178429542E1,2.799369510E1
6.300143250E0,1.254068012E1,1.107844702E1,1.766614938E1,2.433297105E1
6.310138250E0,1.248106658E1,1.009176212E1,1.257538685E1,2.039021923E1
6.320132250E0,1.188007105E1,9.349279168E0,8.094290687E0,1.714825504E1
6.330127250E0,1.059457238E1,8.420332017E0,4.709067990E0,1.432907103E1
6.340121250E0,8.832227429E0,6.525657560E0,2.737794423E0,1.131759543E1
6.350116250E0,6.762861557E0,4.087760396E0,1.780938511E0,8.100482916E0
6.360110250E0,3.846005218E0,1.655531523E0,8.274049884E-1,4.268154142E0
6.370105250E0,8.223015386E-1,-6.486275393E-1,-4.551940441E-1,1.141971595E0
6.380099250E0,-1.326318956E0,-2.727643656E0,-2.877324775E0,4.180688909E0
6.390094250E0,-2.700999941E0,-4.750776764E0,-5.339620616E0,7.640473078E0
6.400088250E0,-3.876298473E0,-6.181878701E0,-7.499024838E0,1.046311080E1
6.410083250E0,-4.700656770E0,-7.152841605E0,-9.442437592E0,1.274436914E1
6.420077250E0,-5.217479882E0,-7.951342637E0,-1.106903534E1,1.459347420E1
6.430072250E0,-5.927644688E0,-8.417155809E0,-1.176784894E1,1.563546457E1
6.440066250E0,-7.036946282E0,-8.731600941E0,-1.173505074E1,1.623178622E1
6.450061250E0,-8.092666916E0,-9.087694620E0,-1.128497184E1,1.659602485E1
6.460055250E0,-9.046503325E0,-9.297745317E0,-1.058760250E1,1.674468922E1
6.470050250E0,-9.696637691E0,-9.432451133E0,-9.894898063E0,1.676021851E1
6.480044250E0,-1.012591337E1,-9.474180956E0,-9.265315490E0,1.667753871E1
6.490039250E0,-1.044837679E1,-9.424953833E0,-8.584679123E0,1.648317469E1
6.500033250E0,-1.068081764E1,-9.286980593E0,-8.129271655E0,1.632216075E1
6.510028250E0,-1.080969612E1,-9.009920220E0,-7.923837919E0,1.614978018E1
6.520023250E0,-1.061423657E1,-8.686590829E0,-7.818798537E0,1.578773222E1
6.530017250E0,-1.010363431E1,-8.414344468E0,-7.665027875E0,1.521963440E1
6.540012250E0,-9.191638818E0,-8.132202280E0,-7.327150612E0,1.429356758E1
6.550006250E0,-8.085552608E0,-7.784460763E0,-6.837704748E0,1.314260996E1
6.560001250E0,-7.274664250E0,-7.475985054E0,-6.240622754E0,1.215551171E1
6.569995250E0,-6.847347976E0,-7.194641011E0,-5.512331579E0,1.135935003E1
6.579990250E0,-6.623963873E0,-6.868924202E0,-4.964952672E0,1.075684768E1
6.589984250E0,-6.450802090E0,-6.572097901E0,-4.684122013E0,1.033181095E1
6.599979250E0,-6.314619268E0,-6.185779964E0,-4.457186896E0,9.899737637E0
6.609973250E0,-6.113980249E0,-5.695487423E0,-4.307147343E0,9.400577094E0
6.619968250E0,-5.766401870E0,-5.195516571E0,-4.237964841E0,8.843366381E0
6.629962250E0,-5.186858599E0,-4.707513215E0,-4.313598576E0,8.226257683E0
6.639957250E0,-4.514877280E0,-4.259025342E0,-4.388424810E0,7.601426579E0
6.649951250E0,-3.866411124E0,-3.658372453E0,-4.367180121E0,6.885135162E0
6.659946250E0,-3.532593582E0,-3.260368856E0,-4.262203889E0,6.424609287E0
6.669940250E0,-3.545867347E0,-2.753142779E0,-3.985826470E0,6.003314339E0
6.679935250E0,-3.535632380E0,-2.239839690E0,-3.482370093E0,5.444674428E0
6.689929250E0,-3.389994026E0,-1.649550991E0,-2.722239659E0,4.650125453E0
6.699924250E0,-3.001075832E0,-9.711804199E-1,-1.907554704E0,3.686246398E0
6.709919250E0,-2.051586244E0,6.907608211E-2,-1.133382182E0,2.344852403E0
6.719913250E0,-1.693488139E-1,1.201962713E0,2.290009385E-1,1.235246863E0
6.729908250E0,2.130601423E0,2.671653350E0,2.637297742E0,4.316541837E0
6.739902250E0,4.800868691E0,4.413362600E0,5.761106631E0,8.701520513E0
6.749897250E0,7.340843621E0,5.998449792E0,8.813222224E0,1.294381207E1
6.759891250E0,9.978912027E0,7.005917448E0,1.187545175E1,1.702022088E1
6.769886250E0,1.237408592E1,7.824391984E0,1.502064566E1,2.097519746E1
6.779880250E0,1.458329965E1,8.789926917E0,1.767137913E1,2.454003024E1
6.789875250E0,1.664455895E1,1.007529519E1,1.966024288E1,2.766004457E1
6.799869250E0,1.859319268E1,1.153644539E1,2.071370298E1,3.013061362E1
6.809864250E0,2.038576072E1,1.279710742E1,2.059479400E1,3.167792194E1
6.819858250E0,2.131703740E1,1.327074007E1,1.943856908E1,3.175510343E1
6.829853250E0,2.029900207E1,1.308459630E1,1.799830631E1,3.011968087E1
6.839847250E0,1.740472856E1,1.259088197E1,1.679190878E1,2.726578598E1
6.849842250E0,1.397251354E1,1.144229820E1,1.485869883E1,2.338671105E1
6.859836250E0,1.071574423E1,1.042701691E1,1.243766387E1,1.944853050E1
6.869831250E0,7.944830593E0,9.346748493E0,9.457138077E0,1.548933508E1
6.879825250E0,6.122532971E0,8.231785040E0,6.621375895E0,1.221025445E1
6.889820250E0,4.823834215E0,6.975947544E0,4.155396894E0,9.444603963E0
6.899815250E0,3.902296363E0,5.438957793E0,2.300777618E0,7.078400697E0
6.909809250E0,3.019423810E0,3.772180320E0,7.982472628E-1,4.897291415E0
6.919804250E0,2.208123223E0,1.796242429E0,-4.008570385E-1,2.874540206E0
6.929798250E0,1.384294684E0,-3.450172985E-1,-1.339659086E0,1.957037347E0
6.939793250E0,7.586776927E-1,-2.664490219E0,-2.068180057E0,3.457234258E0
6.949787250E0,3.791273233E-1,-4.657222483E0,-2.637450355E0,5.365594390E0
6.959782250E0,-1.943947774E-1,-6.209931303E0,-3.567857555E0,7.164540715E0
6.969776250E0,-1.122618335E0,-7.508076328E0,-5.123135058E0,9.158493047E0
6.979771250E0,-2.501593223E0,-8.309215624E0,-7.031370378E0,1.116876011E1
6.989765250E0,-3.945862213E0,-8.831302400E0,-8.826211814E0,1.309441658E1
6.999760250E0,-5.300332589E0,-9.250303933E0,-1.014965423E1,1.471995684E1
7.009754250E0,-6.428428304E0,-9.480753227E0,-1.114377679E1,1.598102416E1
7.019749250E0,-7.125526922E0,-9.555906905E0,-1.151786410E1,1.657557493E1
7.029744250E0,-7.424768708E0,-9.620247327E0,-1.176145794E1,1.691177820E1
7.039738250E0,-7.622577090E0,-9.590845773E0,-1.161471037E1,1.688163206E1
7.049733250E0,-7.807164917E0,-9.320904384E0,-1.145889143E1,1.670740181E1
7.059727250E0,-7.860953454E0,-9.073595814E0,-1.124310578E1,1.644786180E1
7.069722250E0,-7.835270144E0,-8.711811039E0,-1.093356003E1,1.602591167E1
7.079716250E0,-7.774476643E0,-8.385532898E0,-1.065607105E1,1.563046702E1
7.089711250E0,-7.484962869E0,-8.065770308E0,-1.031616773E1,1.508325683E1
7.099705250E0,-7.097870761E0,-7.634897758E0,-9.965066990E0,1.442130345E1
7.109700250E0,-6.708944381E0,-7.127792718E0,-9.589878058E0,1.370332532E1
7.119694250E0,-6.238940510E0,-6.669745817E0,-9.133949019E0,1.291661382E1
7.129689250E0,-5.657008651E0,-6.220115983E0,-8.635580304E0,1.205258632E1
7.139683250E0,-5.041966349E0,-5.802294418E0,-8.025498195E0,1.111290540E1
7.149678250E0,-4.383698798E0,-5.435652947E0,-7.389181969E0,1.016676685E1
7.159673250E0,-3.870703273E0,-5.002152073E0,-6.754206508E0,9.253279135E0
7.169667250E0,-3.618247983E0,-4.586063038E0,-6.179020582E0,8.503175172E0
7.179662250E0,-3.471129405E0,-4.245527045E0,-5.715719374E0,7.921028166E0
7.189656250E0,-3.223685472E0,-3.833563221E0,-5.205472625E0,7.223939385E0
7.199651250E0,-2.814059072E0,-3.398674802E0,-4.713211327E0,6.456336413E0
7.209645250E0,-2.327385665E0,-2.907311051E0,-4.182304611E0,5.600076199E0
7.219640250E0,-2.062957909E0,-2.300511569E0,-3.744555150E0,4.854878174E0
7.229634250E0,-1.770453284E0,-1.491555131E0,-3.103155938E0,3.871539528E0
7.239629250E0,-1.485175819E0,-7.113634855E-1,-2.498885962E0,2.992693815E0
7.249623250E0,-7.906400353E-1,-1.491800129E-1,-1.704752215E0,1.885085265E0
7.259618250E0,5.738627011E-1,2.857803261E-1,-4.984798121E-1,8.120781475E-1
7.269612250E0,2.213155922E0,8.529432875E-1,1.057684128E0,2.596972680E0
7.279607250E0,3.712297230E0,1.042628717E0,2.606243765E0,4.654109145E0
7.289601250E0,4.680328340E0,1.418918679E0,3.984176386E0,6.308126906E0
7.299596250E0,5.277245443E0,2.297233620E0,5.559426808E0,8.002113983E0
7.309591250E0,5.958255447E0,3.253924640E0,7.778936899E0,1.032476115E1
7.319585250E0,7.128421293E0,4.056052115E0,1.068476334E1,1.346959972E1
7.329580250E0,8.988323529E0,4.687414581E0,1.377082553E1,1.709963307E1
7.339574250E0,1.053594936E1,6.612329083E0,1.676297676E1,2.087406321E1
7.349569250E0,1.210746926E1,9.918223776E0,1.869197554E1,2.437933396E1
7.359563250E0,1.499475652E1,1.296389223E1,1.966600121E1,2.792233566E1
7.369558250E0,1.863002429E1,1.547151744E1,1.995034430E1,3.137613575E1
7.379552250E0,2.081176312E1,1.682090746E1,2.015249891E1,3.349918842E1
7.389547250E0,1.898855450E1,1.716578326E1,2.022597035E1,3.262390525E1
7.399541250E0,1.420582563E1,1.619880816E1,1.912038466E1,2.880617949E1
7.409536250E0,9.535712376E0,1.443167784E1,1.681027839E1,2.412029427E1
7.419530250E0,6.516247051E0,1.240342257E1,1.391361571E1,1.974576079E1
7.429525417E0,4.775722740E0,1.060486816E1,1.095096251E1,1.597480317E1
7.439520417E0,3.669175184E0,8.847562922E0,8.064047134E0,1.252082555E1
7.449514417E0,2.668909544E0,6.895635452E0,5.275084312E0,9.082916984E0
7.459509416E0,1.668494800E0,4.784236870E0,2.816233066E0,5.796892790E0
7.469503417E0,8.515270919E-1,2.627092597E0,1.012692727E0,2.941472499E0
7.479498417E0,2.401930940E-1,2.132070243E-1,-5.530273175E-1,6.395226122E-1
7.489492417E0,-2.702448589E-1,-2.179173658E0,-1.832499844E0,2.860049964E0
7.499487417E0,-9.193296504E-1,-4.349646660E0,-2.780957399E0,5.243883783E0
7.509481417E0,-1.698018562E0,-6.115198808E0,-3.715183416E0,7.354013280E0
7.519476417E0,-2.521108890E0,-7.511827902E0,-4.641592290E0,9.183023873E0
7.529470416E0,-3.580540166E0,-8.632035137E0,-5.616548257E0,1.090311482E1
7.539465417E0,-4.760825496E0,-9.301140795E0,-6.745870718E0,1.243718020E1
7.549460417E0,-5.870061893E0,-9.715474496E0,-8.052135186E0,1.391707413E1
7.559454417E0,-6.825482898E0,-9.949067838E0,-9.212607518E0,1.518035918E1
7.569449417E0,-7.592234133E0,-1.000690850E1,-1.008907591E1,1.611116661E1
7.579443417E0,-8.042004300E0,-9.885639582E0,-1.050191974E1,1.651332860E1
7.589438417E0,-8.176714793E0,-9.775839981E0,-1.069245594E1,1.663593478E1
7.599432416E0,-8.130478520E0,-9.741517995E0,-1.068980481E1,1.659137670E1
7.609427416E0,-8.112147499E0,-9.735998223E0,-1.053109501E1,1.647727406E1
7.619421417E0,-8.145429851E0,-9.642480195E0,-1.023791678E1,1.625239649E1
7.629416417E0,-8.107549249E0,-9.558990142E0,-9.808649878E0,1.591591216E1
7.639410417E0,-7.999219054E0,-9.466542739E0,-9.212397019E0,1.544251261E1
7.649405417E0,-7.726671562E0,-9.334493898E0,-8.449565172E0,1.477258885E1
7.659400417E0,-7.345006839E0,-9.163379225E0,-7.731973232E0,1.406058514E1
7.669394417E0,-7.013774351E0,-8.938637398E0,-7.097446253E0,1.339649255E1
7.679389416E0,-6.635246660E0,-8.588406723E0,-6.483475161E0,1.264209945E1
7.689383417E0,-6.241452473E0,-8.161648858E0,-6.052144189E0,1.192462538E1
7.699378417E0,-5.918290898E0,-7.659459572E0,-5.714008479E0,1.124025716E1
7.709372417E0,-5.632405906E0,-7.147507190E0,-5.460819948E0,1.061279463E1
7.719367417E0,-5.364160210E0,-6.663060111E0,-5.293901821E0,1.005962133E1
7.729361417E0,-4.998824422E0,-6.154794399E0,-5.122028764E0,9.439540156E0
7.739356417E0,-4.741211303E0,-5.624574730E0,-4.936850368E0,8.859312450E0
7.749350416E0,-4.494199187E0,-5.077226813E0,-4.736428281E0,8.271022386E0
7.759345417E0,-4.256637340E0,-4.593041689E0,-4.490208462E0,7.705645037E0
7.769340417E0,-4.014823982E0,-4.068500837E0,-4.233243214E0,7.112795427E0
7.779334417E0,-3.754342804E0,-3.479040688E0,-3.889542709E0,6.428635663E0
7.789329417E0,-3.648939725E0,-2.673073931E0,-3.283559498E0,5.589440789E0
7.799323417E0,-3.250449055E0,-1.655671856E0,-2.507015930E0,4.426262219E0
7.809318417E0,-2.617949306E0,-4.131864774E-1,-1.410408057E0,3.002271227E0
7.819312416E0,-1.507896345E0,7.911072278E-1,3.308927643E-1,1.734673472E0
7.829307417E0,2.875163645E-1,2.214693739E0,2.801790444E0,3.582954606E0
7.839301417E0,2.793966284E0,4.034951268E0,5.985687659E0,7.740512650E0
7.849296417E0,5.279162160E0,5.745600400E0,9.212841407E0,1.207302464E1
7.859290417E0,8.087008565E0,6.875454372E0,1.214428216E1,1.612932638E1
7.869285417E0,1.139344471E1,7.525431449E0,1.455957633E1,1.996056021E1
7.879280417E0,1.432921591E1,8.656787571E0,1.623328451E1,2.331921795E1
7.889274416E0,1.613398592E1,1.045098347E1,1.666345364E1,2.544011094E1
7.899269416E0,1.724440375E1,1.180999801E1,1.630420305E1,2.650797146E1
7.909263417E0,1.823901747E1,1.237228030E1,1.625884503E1,2.738768190E1
7.919258417E0,1.865882300E1,1.267243893E1,1.692020488E1,2.819637773E1
7.929252417E0,1.781931836E1,1.262487300E1,1.818832445E1,2.842060294E1
7.939247417E0,1.516102678E1,1.206799822E1,1.848420526E1,2.677982744E1
7.949241417E0,1.112851555E1,1.152042869E1,1.730003416E1,2.357658410E1
7.959236417E0,7.632208623E0,1.087421196E1,1.508089069E1,2.009806852E1
7.969230416E0,5.759130857E0,9.588939580E0,1.217444795E1,1.653277150E1
7.979225417E0,4.751297166E0,8.126570241E0,9.369873646E0,1.328196148E1
7.989220417E0,4.059064893E0,6.900416721E0,6.949754357E0,1.060145482E1
7.999214417E0,3.393918677E0,5.390702477E0,4.698917223E0,7.915692026E0
8.009209417E0,2.360103175E0,4.031513690E0,3.013643253E0,5.559247726E0
8.019203417E0,1.231551670E0,2.699243145E0,1.871541118E0,3.507890994E0
8.029198417E0,2.415262592E-1,1.236458069E0,1.093817582E0,1.668412537E0
8.039192416E0,-6.540853304E-1,-3.206560439E-1,3.460043085E-1,8.064532841E-1
8.049187417E0,-1.379983532E0,-1.909286065E0,-2.168936938E-1,2.365749501E0
8.059181417E0,-1.802579349E0,-3.524706273E0,-6.403706861E-1,4.010351760E0
8.069176417E0,-1.762567729E0,-5.127764298E0,-1.228201801E0,5.559594532E0
8.079170417E0,-1.657529517E0,-6.576226035E0,-2.206577804E0,7.131839774E0
8.089165417E0,-1.916781026E0,-7.828382708E0,-3.403799887E0,8.748913018E0
8.099160417E0,-2.558575509E0,-8.799096521E0,-4.709316496E0,1.030281855E1
8.109154416E0,-3.368070475E0,-9.498943330E0,-5.948232735E0,1.170279009E1
8.119149417E0,-4.272568079E0,-1.005742961E1,-7.066568277E0,1.301319006E1
8.129143417E0,-5.251156336E0,-1.039120856E1,-8.032970937E0,1.414498074E1
8.139138417E0,-6.058557415E0,-1.055910668E1,-8.943312832E0,1.510575043E1
8.149132417E0,-6.579158413E0,-1.055345827E1,-9.756407930E0,1.580659048E1
8.159127417E0,-6.878289102E0,-1.044963043E1,-1.052741126E1,1.635029128E1
8.169121417E0,-6.970534776E0,-1.026496600E1,-1.115983909E1,1.668831599E1
8.179116416E0,-6.857833788E0,-1.000107882E1,-1.156033126E1,1.675388673E1
8.189111417E0,-6.588698730E0,-9.686033766E0,-1.176882192E1,1.660528140E1
8.199105417E0,-6.519433783E0,-9.317293729E0,-1.157573984E1,1.622691382E1
8.209100417E0,-6.588898121E0,-8.879377037E0,-1.096972506E1,1.557535819E1
8.219094417E0,-6.583261989E0,-8.609657843E0,-1.006578528E1,1.479140223E1
8.229089417E0,-6.525834146E0,-8.466656583E0,-9.103378606E0,1.404073670E1
8.239083417E0,-6.457396579E0,-8.167812408E0,-8.193340766E0,1.324922500E1
8.249078416E0,-6.220581422E0,-7.895972428E0,-7.461486883E0,1.251861815E1
8.259072416E0,-5.937113085E0,-7.659306960E0,-6.949857852E0,1.192538549E1
8.269067417E0,-5.613156288E0,-7.272410733E0,-6.578625732E0,1.129928307E1
8.279061417E0,-5.244455427E0,-6.873580924E0,-6.358947009E0,1.073250365E1
8.289056417E0,-4.910124500E0,-6.493386776E0,-6.256986771E0,1.026758384E1
8.299051417E0,-4.679671113E0,-6.085021913E0,-6.173679736E0,9.850945888E0
8.309045417E0,-4.686929554E0,-5.668017789E0,-6.121879252E0,9.569281053E0
8.319040417E0,-4.608876534E0,-5.284248068E0,-5.956935146E0,9.200548727E0
8.329034416E0,-4.519507982E0,-4.710999910E0,-5.670957184E0,8.647498363E0
8.339029417E0,-4.197922231E0,-3.878842889E0,-5.275201256E0,7.777899557E0
8.349023417E0,-3.782018260E0,-2.757627009E0,-4.927977219E0,6.796552678E0
8.359018417E0,-3.167479111E0,-1.371788952E0,-4.165395048E0,5.409736107E0
8.369012417E0,-1.867804747E0,1.663942158E-1,-2.569374146E0,3.180890616E0
8.379007417E0,1.723317710E-1,2.181555229E0,4.177484751E-1,2.227867870E0
8.389001417E0,2.510111446E0,4.679837759E0,4.518417184E0,6.972634708E0
8.398996416E0,5.247002474E0,7.185803529E0,8.764889140E0,1.248959923E1
8.408991417E0,8.948953641E0,9.404866893E0,1.284828108E1,1.826509292E1
8.418985417E0,1.404714038E1,1.101545496E1,1.655789736E1,2.434802592E1
8.428980417E0,1.967097135E1,1.255042625E1,1.978514174E1,3.059268126E1
8.438974375E0,2.406396810E1,1.414552797E1,2.181364142E1,3.542605643E1
8.448969375E0,2.552993055E1,1.570311746E1,2.264754092E1,3.756695837E1
8.458963375E0,2.463660230E1,1.639110788E1,2.258826184E1,3.722714283E1
8.468958375E0,2.257899985E1,1.615160007E1,2.267229335E1,3.584296730E1
8.478952375E0,1.911227691E1,1.523426549E1,2.221456629E1,3.302800220E1
8.488947375E0,1.427705641E1,1.410935827E1,2.059417653E1,2.875810212E1
8.498942375E0,9.434521047E0,1.310875934E1,1.798544829E1,2.417283824E1
8.508936375E0,6.058455673E0,1.140005206E1,1.438916274E1,1.933168582E1
8.518931375E0,4.124568034E0,9.342888746E0,1.098319120E1,1.499773718E1
8.528925375E0,2.920368469E0,7.198014854E0,7.953699065E0,1.111761209E1
8.538920375E0,2.192534546E0,5.187204169E0,5.088004401E0,7.589603653E0
8.548914375E0,1.317534392E0,3.363008541E0,2.508154968E0,4.397336087E0
8.558909375E0,4.738808683E-1,1.544407236E0,3.128102499E-1,1.645480793E0
8.568903375E0,3.014122725E-2,-4.622036862E-1,-1.553045036E0,1.620644817E0
8.578898375E0,-2.280779555E-1,-2.567984848E0,-3.237458296E0,4.138562788E0
8.588892375E0,-4.879761663E-1,-4.590684969E0,-4.761536225E0,6.632098947E0
8.598887375E0,-7.614264688E-1,-6.423416655E0,-5.987321956E0,8.814083957E0
8.608882375E0,-1.221134856E0,-8.001946195E0,-7.127600344E0,1.078540680E1
8.618876375E0,-2.083418778E0,-9.194478811E0,-8.160547242E0,1.246890555E1
8.628871375E0,-3.165930476E0,-9.996141433E0,-9.051568183E0,1.385196181E1
8.638865375E0,-4.134549816E0,-1.060969796E1,-9.873690212E0,1.507149466E1
8.648860375E0,-5.086215738E0,-1.105320459E1,-1.076055027E1,1.624291736E1
8.658854375E0,-6.069390551E0,-1.102443512E1,-1.168531783E1,1.717330266E1
8.668849375E0,-6.932547755E0,-1.078879466E1,-1.275231541E1,1.808534923E1
8.678843375E0,-7.518582605E0,-1.068009259E1,-1.370507125E1,1.893204796E1
8.688838375E0,-7.739260032E0,-1.058273528E1,-1.416922089E1,1.930433248E1
8.698833375E0,-7.614243053E0,-1.037771669E1,-1.406903470E1,1.906859823E1
8.708827375E0,-7.131052541E0,-1.012376627E1,-1.331803235E1,1.818550356E1
8.718822375E0,-6.678679193E0,-9.903045573E0,-1.226908630E1,1.712324578E1
8.728816375E0,-6.251392740E0,-9.599042400E0,-1.119718759E1,1.601869334E1
8.738811375E0,-5.831386070E0,-9.280551580E0,-1.024106843E1,1.500043945E1
8.748805375E0,-5.464800732E0,-8.886669685E0,-9.458231506E0,1.408172888E1
8.758800375E0,-5.028441739E0,-8.343341728E0,-8.791797441E0,1.312220560E1
8.768794375E0,-4.541819203E0,-7.715225637E0,-8.271008747E0,1.218861822E1
8.778789375E0,-4.262421990E0,-6.986996443E0,-7.935050540E0,1.139962226E1
8.788784375E0,-4.126746414E0,-6.244224054E0,-7.562285280E0,1.063994965E1
8.798778375E0,-4.092708018E0,-5.689037944E0,-7.210102218E0,1.005489859E1
8.808773375E0,-4.177637363E0,-5.201064994E0,-6.950600449E0,9.634032261E0
8.818767375E0,-4.248408261E0,-4.712576904E0,-6.508821087E0,9.089670278E0
8.828762375E0,-4.092986345E0,-4.351942277E0,-5.937272129E0,8.422775026E0
8.838756375E0,-3.820856051E0,-3.857136855E0,-5.356365287E0,7.626735526E0
8.848751375E0,-3.431426519E0,-3.393656137E0,-4.595116282E0,6.663833999E0
8.858745375E0,-3.025566310E0,-2.814237996E0,-3.615978971E0,5.490836996E0
8.868740375E0,-2.436243571E0,-1.864380618E0,-2.310355942E0,3.840435184E0
8.878734375E0,-1.615452368E0,-7.319924623E-1,-6.233213747E-1,1.879901289E0
8.888729375E0,-5.475008217E-1,6.633449811E-1,1.242578350E0,1.511219596E0
8.898724375E0,8.576508808E-1,2.417233688E0,3.712573804E0,4.512403792E0
8.908718375E0,2.536846963E0,4.964608855E0,6.493434139E0,8.558482372E0
8.918713375E0,4.679650648E0,7.295165173E0,9.266976099E0,1.268839671E1
8.928707375E0,7.753866377E0,8.165654200E0,1.221997788E1,1.661710600E1
8.938702375E0,1.078049045E1,8.623768344E0,1.544441910E1,2.071517406E1
8.948696375E0,1.295344442E1,9.507786659E0,1.839014110E1,2.442103641E1
8.958691375E0,1.395814693E1,1.076191034E1,2.082343650E1,2.728120393E1
8.968685375E0,1.374852542E1,1.197525202E1,2.191389311E1,2.850696973E1
8.978680375E0,1.378240886E1,1.239303909E1,2.229989822E1,2.899702868E1
8.988675375E0,1.410295440E1,1.245183869E1,2.268664943E1,2.947245616E1
8.998669375E0,1.351030518E1,1.237678500E1,2.273251967E1,2.919727048E1
9.008664375E0,1.099640006E1,1.286216237E1,2.178393757E1,2.758434286E1
9.018658375E0,8.253315073E0,1.320232531E1,1.965759760E1,2.507667734E1
9.028653375E0,6.358834158E0,1.272587196E1,1.658562720E1,2.185098667E1
9.038647375E0,4.821451767E0,1.188971778E1,1.314641891E1,1.836954317E1
9.048642375E0,3.834412236E0,1.076475676E1,1.018293541E1,1.530604060E1
9.058636375E0,3.441265044E0,9.560586432E0,7.830227505E0,1.282807783E1
9.068631375E0,3.309041956E0,7.792107167E0,5.936521931E0,1.033968014E1
9.078625375E0,3.341409511E0,5.615359519E0,4.924981690E0,8.182464463E0
9.088620375E0,3.261231905E0,3.498558694E0,4.386473594E0,6.489737827E0
9.098615375E0,2.962463451E0,1.218880462E0,3.332417663E0,4.622430828E0
9.108609375E0,2.351279873E0,-9.374171349E-1,1.819579251E0,3.117392593E0
9.118604375E0,1.504387138E0,-2.771931052E0,1.904829901E-1,3.159599055E0
9.128598375E0,6.006766433E-1,-4.480153590E0,-1.397485710E0,4.731337541E0
9.138593375E0,1.168625251E-1,-6.074589896E0,-3.008377250E0,6.779722187E0
9.148587375E0,3.323831465E-2,-7.574911757E0,-4.728190139E0,8.929511459E0
9.158582375E0,-1.706525968E-1,-8.714192026E0,-6.541516378E0,1.089760072E1
9.168576375E0,-6.280450478E-1,-9.592040359E0,-8.193848305E0,1.263094727E1
9.178571375E0,-1.152621568E0,-1.014168214E1,-9.533748296E0,1.396691124E1
9.188566375E0,-1.522270847E0,-1.044407908E1,-1.060443312E1,1.496162084E1
9.198560375E0,-1.749560598E0,-1.054206438E1,-1.135647393E1,1.559376747E1
9.208555375E0,-1.548437722E0,-1.056725419E1,-1.190654958E1,1.599470048E1
9.218549375E0,-1.120051627E0,-1.063208928E1,-1.250962789E1,1.645559565E1
9.228544375E0,-5.155806156E-1,-1.077626876E1,-1.275511389E1,1.670588884E1
9.238538375E0,-8.282142431E-3,-1.085770410E1,-1.271418455E1,1.671945859E1
9.248533375E0,2.316031688E-1,-1.092050904E1,-1.253293255E1,1.662484755E1
9.258527375E0,2.282708406E-1,-1.099197254E1,-1.225465771E1,1.646366313E1
9.268522375E0,1.235301782E-1,-1.094176601E1,-1.170311910E1,1.602187566E1
9.278517375E0,-6.965130195E-3,-1.088381192E1,-1.104787310E1,1.550847866E1
9.288511375E0,-1.520216136E-1,-1.073876004E1,-1.039639972E1,1.494754846E1
9.298506375E0,-2.577006079E-1,-1.037918084E1,-9.681606254E0,1.419603128E1
9.308500375E0,-1.817274425E-1,-9.967124040E0,-8.945433033E0,1.339392992E1
9.318495375E0,1.929462759E-1,-9.478965148E0,-8.090248507E0,1.246355204E1
9.328489375E0,6.399101447E-1,-8.882778947E0,-7.342657428E0,1.154243756E1
9.338484375E0,9.913731945E-1,-8.253327937E0,-6.762762154E0,1.071611846E1
9.348478375E0,1.246447891E0,-7.546921721E0,-6.448453263E0,1.000460940E1
9.358473375E0,1.296319670E0,-6.861641495E0,-6.263744398E0,9.380674953E0
9.368467375E0,1.061127334E0,-6.074428512E0,-5.846499953E0,8.497425179E0
9.378462375E0,7.353549767E-1,-5.285012299E0,-5.245379287E0,7.482386371E0
9.388457375E0,4.332639156E-1,-4.285559422E0,-4.106290222E0,5.951080286E0
9.398451375E0,1.816740136E-1,-3.217104138E0,-2.679562587E0,4.190801849E0
9.408446375E0,-8.122637697E-2,-1.816764987E0,-1.514267471E0,2.366482350E0
9.418440375E0,-2.703941090E-1,-1.807994163E-1,-6.844312102E-1,7.577911880E-1
9.428435375E0,-3.868715219E-1,1.568669381E0,-4.475400388E-2,1.616290853E0
9.438432875E0,8.927309588E-2,3.125888159E0,7.187204522E-1,3.208692188E0
9.448427875E0,9.932415260E-1,4.307081854E0,2.214411319E0,4.943794121E0
9.458421875E0,1.799696087E0,5.198098701E0,4.936904747E0,7.391357426E0
9.468416875E0,1.937051860E0,5.724353372E0,8.126863187E0,1.012750200E1
9.478411875E0,9.786502379E-1,6.133605258E0,1.036407163E1,1.208275012E1
9.488405875E0,-7.007142439E-1,6.700724950E0,1.129024603E1,1.314763746E1
9.498400875E0,-2.549627514E0,8.406714436E0,1.196156954E1,1.484090947E1
9.508394875E0,-3.548204186E0,1.067536804E1,1.263045593E1,1.691394846E1
9.518389875E0,-3.389691725E0,1.267499066E1,1.334706963E1,1.871602698E1
9.528383875E0,-2.389917251E0,1.401487779E1,1.448858879E1,2.029895832E1
9.538378875E0,-9.271549791E-1,1.465076717E1,1.557292921E1,2.140141862E1
9.548372875E0,3.994099988E-1,1.462799343E1,1.652129379E1,2.207013522E1
9.558367875E0,1.190417093E0,1.454879290E1,1.708470109E1,2.247157046E1
9.568361875E0,1.506104904E0,1.423747661E1,1.655597012E1,2.188776459E1
9.578356875E0,1.468336422E0,1.377969926E1,1.540416687E1,2.072014673E1
9.588351875E0,1.169509643E0,1.310167134E1,1.381418030E1,1.907493439E1
9.598345875E0,1.047823384E0,1.175801159E1,1.193770120E1,1.678861163E1
9.608340875E0,9.000416594E-1,1.009961610E1,9.768610484E0,1.407970423E1
9.618334875E0,4.849696011E-1,8.052700027E0,6.954485339E0,1.065110509E1
9.628329875E0,1.626965828E-1,5.686252331E0,3.962801889E0,6.932801350E0
9.638323875E0,1.426286463E-1,3.188372675E0,1.274883631E0,3.436770507E0
9.648318875E0,3.928997820E-1,7.971719599E-1,-9.755208081E-1,1.319656857E0
9.658312875E0,7.574221493E-1,-1.471094554E0,-2.791902217E0,3.245385261E0
9.668307875E0,1.171566620E0,-3.450039668E0,-4.037273782E0,5.438282969E0
9.678301875E0,1.453285105E0,-5.145470252E0,-4.889407815E0,7.245288848E0
9.688296875E0,1.577972739E0,-6.677149562E0,-5.595207675E0,8.853286009E0
9.698291875E0,1.613415491E0,-8.052214708E0,-6.251590376E0,1.032102967E1
9.708285875E0,1.463566849E0,-9.175559560E0,-6.923027319E0,1.158711476E1
9.718280875E0,1.079681792E0,-9.805766031E0,-7.558338409E0,1.242768038E1
9.728274875E0,6.591420025E-1,-1.004757939E1,-8.225080622E0,1.300154879E1
9.738269875E0,3.928043993E-1,-1.006647525E1,-8.858364483E0,1.341487386E1
9.748263875E0,2.738723253E-1,-9.838799876E0,-9.331224135E0,1.356277010E1
9.758258875E0,2.834791544E-1,-9.586719977E0,-9.520872728E0,1.351416212E1
9.768253875E0,4.576601073E-1,-9.340639907E0,-9.498341067E0,1.332949698E1
9.778247875E0,8.708596679E-1,-9.056096267E0,-9.361768820E0,1.305427101E1
9.788242875E0,1.332933034E0,-8.729833912E0,-9.153911998E0,1.271930877E1
9.798236875E0,1.503864689E0,-8.504307389E0,-8.867967950E0,1.237843725E1
9.808231875E0,1.548357177E0,-8.450303090E0,-8.482889038E0,1.207329444E1
9.818225875E0,1.500622262E0,-8.541122044E0,-8.014730548E0,1.180840966E1
9.828220875E0,1.358309512E0,-8.575480283E0,-7.463062123E0,1.144906822E1
9.838214875E0,1.236323291E0,-8.566349856E0,-6.964203411E0,1.110904921E1
9.848209875E0,1.181996225E0,-8.471149583E0,-6.540238177E0,1.076718189E1
9.858203875E0,1.121213980E0,-8.408589638E0,-6.153052513E0,1.047957803E1
9.868198875E0,1.019596389E0,-8.313421526E0,-5.841525727E0,1.021156095E1
9.878193875E0,9.368547790E-1,-8.134086837E0,-5.656579465E0,9.951781589E0
9.888187875E0,8.992419065E-1,-7.833730572E0,-5.629506272E0,9.688514414E0
9.898182875E0,8.608690421E-1,-7.300327680E0,-5.631644014E0,9.260199460E0
9.908176875E0,9.012557606E-1,-6.581379186E0,-5.494693453E0,8.620816091E0
9.918171875E0,1.001535217E0,-5.874512794E0,-5.313953093E0,7.984426769E0
9.928165875E0,8.206435606E-1,-4.944017885E0,-5.133172973E0,7.173997036E0
9.938160875E0,3.912156377E-1,-3.734500862E0,-4.928813370E0,6.196188151E0
9.948154875E0,-1.401000910E-1,-2.402454851E0,-4.916855230E0,5.474201558E0
9.958149875E0,-7.101904609E-1,-9.302142423E-1,-5.022418522E0,5.156971673E0
9.968143875E0,-1.161317986E0,8.774355197E-1,-4.787375071E0,5.003749856E0
9.978138875E0,-1.269575968E0,2.759180614E0,-3.515448961E0,4.645781118E0
9.988133875E0,-8.846705720E-1,4.591081703E0,-9.400118369E-1,4.769097973E0
9.998127875E0,-3.795614060E-2,5.949006321E0,2.852731971E0,6.597741779E0
1.000812287E1,9.114685075E-1,7.124386130E0,7.420300266E0,1.032707648E1
1.001811687E1,1.704947512E0,8.036998499E0,1.177021590E1,1.435402986E1
1.002811187E1,1.611216207E0,8.885687937E0,1.490940121E1,1.743105597E1
1.003810588E1,6.657492100E-1,1.001641022E1,1.684568679E1,1.960991737E1
1.004810087E1,-1.117005447E0,1.192090683E1,1.799469273E1,2.161399286E1
1.005809487E1,-2.541713016E0,1.400133213E1,1.828463862E1,2.316949753E1
1.006808987E1,-2.994705291E0,1.539580418E1,1.826668766E1,2.407635613E1
1.007808487E1,-2.404992835E0,1.616066326E1,1.953064285E1,2.546364148E1
1.008807887E1,-1.919742056E0,1.636287869E1,2.093922541E1,2.664358026E1
1.009807387E1,-1.838528908E0,1.562430518E1,2.238934658E1,2.736388023E1
1.010806787E1,-1.702891923E0,1.442580841E1,2.356456676E1,2.768199046E1
1.011806288E1,-1.062679405E0,1.341791215E1,2.314622421E1,2.677531231E1
1.012805687E1,1.523837024E-1,1.234159646E1,2.047204925E1,2.390487449E1
1.013805187E1,1.550717844E0,1.094535503E1,1.641556444E1,1.979081298E1
1.014804587E1,2.551698891E0,9.070061756E0,1.187797073E1,1.516124586E1
1.015804087E1,2.899693884E0,7.004372029E0,6.878815352E0,1.023657915E1
1.016803487E1,2.681790960E0,4.582174639E0,1.867583722E0,5.628160991E0
1.017802987E1,2.488364774E0,1.909740978E0,-2.332153777E0,3.908709645E0
1.018802488E1,2.758836797E0,-7.922795945E-1,-5.587273588E0,6.281441998E0
1.019801887E1,3.053350525E0,-3.668074738E0,-7.922641579E0,9.249106514E0
1.020801387E1,3.094737702E0,-6.084526654E0,-8.977749424E0,1.127824679E1
1.021800787E1,2.950325509E0,-8.303218135E0,-9.153155369E0,1.270543605E1
1.022800287E1,2.550073657E0,-1.018706121E1,-8.929501709E0,1.378459620E1
1.023799687E1,2.079958542E0,-1.173231658E1,-8.814738407E0,1.482137285E1
1.024799187E1,1.407172500E0,-1.277134342E1,-8.998259702E0,1.568617304E1
1.025798588E1,6.516483571E-1,-1.312641676E1,-9.478461703E0,1.620397170E1
1.026798087E1,9.036988735E-2,-1.308262345E1,-1.026861467E1,1.663152579E1
1.027797587E1,-2.286456471E-1,-1.270307367E1,-1.101226940E1,1.681340051E1
1.028796987E1,-2.231345002E-1,-1.211062208E1,-1.169201991E1,1.683509091E1
1.029796487E1,1.889432721E-2,-1.145745184E1,-1.211807143E1,1.667696660E1
1.030795887E1,3.991312328E-1,-1.086949560E1,-1.229740203E1,1.641740957E1
1.031795387E1,8.279332113E-1,-1.038821829E1,-1.224631023E1,1.608019487E1
1.032794788E1,1.115949878E0,-1.004633393E1,-1.187802803E1,1.559684966E1
1.033794287E1,1.220618254E0,-9.885997431E0,-1.133350607E1,1.508877775E1
1.034793687E1,1.094128946E0,-9.763333957E0,-1.063432877E1,1.447787127E1
1.035793187E1,9.480128013E-1,-9.764643733E0,-9.839726075E0,1.389486253E1
1.036792687E1,7.722535387E-1,-9.759104666E0,-9.001282128E0,1.329885632E1
1.037792087E1,5.276867274E-1,-9.730687782E0,-8.253691049E0,1.277059724E1
1.038791587E1,2.462085633E-1,-9.604641693E0,-7.686383661E0,1.230407471E1
1.039790987E1,-4.375869814E-2,-9.377790191E0,-7.267542341E0,1.186431774E1
1.040790487E1,-2.102218380E-1,-9.130976880E0,-6.990480214E0,1.150155405E1
1.041789887E1,-3.767490415E-1,-8.871630646E0,-6.913309246E0,1.125351567E1
1.042789387E1,-5.991721913E-1,-8.566456860E0,-6.950547239E0,1.104777341E1
1.043788379E1,-7.135075133E-1,-8.205135770E0,-6.975077478E0,1.079282409E1
1.044787879E1,-8.217912228E-1,-7.672611129E0,-6.920462730E0,1.036518725E1
1.045787279E1,-1.027833654E0,-6.940475410E0,-6.683306095E0,9.689851459E0
1.046786779E1,-1.297821089E0,-5.967503403E0,-6.196575093E0,8.700171224E0
1.047786279E1,-1.646561164E0,-4.805713693E0,-5.796065964E0,7.707167341E0
1.048785679E1,-1.807092230E0,-3.540698408E0,-5.355090594E0,6.669267037E0
1.049785179E1,-1.679249876E0,-2.253272499E0,-4.408128172E0,5.227686973E0
1.050784579E1,-1.032940904E0,-8.555125540E-1,-2.435270594E0,2.780181920E0
1.051784079E1,-3.507534901E-1,4.626404732E-1,1.022007342E0,1.175399177E0
1.052783479E1,1.943212487E-1,1.812318764E0,5.681856394E0,5.967055566E0
1.053782979E1,1.405687600E0,3.442001501E0,1.090308551E1,1.151957489E1
1.054782379E1,3.707300492E0,4.507487569E0,1.581596054E1,1.685841419E1
1.055781879E1,5.910407097E0,5.442810524E0,1.951699077E1,2.110616088E1
1.056781379E1,6.395932403E0,7.501390622E0,2.176087849E1,2.388963468E1
1.057780779E1,5.825032486E0,9.926911569E0,2.287818083E1,2.561026620E1
1.058780279E1,5.679087152E0,1.207090078E1,2.448713109E1,2.788509038E1
1.059779679E1,6.420790086E0,1.328526456E1,2.786956525E1,3.153470258E1
1.060779179E1,7.148578985E0,1.380468442E1,3.234755245E1,3.588921346E1
1.061778579E1,6.893100100E0,1.412592811E1,3.551243043E1,3.883541410E1
1.062778079E1,6.049629886E0,1.432355464E1,3.588133828E1,3.910540469E1
1.063777479E1,5.251918813E0,1.447150908E1,3.334353208E1,3.672599022E1
1.064776979E1,4.964098978E0,1.399804716E1,2.794729112E1,3.164867587E1
1.065776379E1,4.948025567E0,1.307282820E1,2.102480058E1,2.524725794E1
1.066775879E1,4.544901271E0,1.167598217E1,1.430838930E1,1.901879837E1
1.067775379E1,3.910937963E0,9.992952361E0,8.833903826E0,1.389936651E1
1.068774779E1,2.796021581E0,7.856652242E0,4.723458572E0,9.584142216E0
1.069774279E1,1.307956945E0,5.237646344E0,2.170036215E0,5.818311419E0
1.070773679E1,1.357223538E-1,2.175691642E0,1.659200066E-1,2.186226000E0
1.071773179E1,-3.106470725E-1,-1.305948719E0,-1.164784069E0,1.777280391E0
1.072772579E1,-4.000612324E-1,-4.338355102E0,-2.377595998E0,4.963298974E0
1.073772079E1,-1.024386282E0,-6.545339288E0,-4.441300596E0,7.975962928E0
1.074771479E1,-2.081189527E0,-8.067460738E0,-6.495801677E0,1.056459711E1
1.075770979E1,-2.966631639E0,-9.257700661E0,-8.226028456E0,1.273473474E1
1.076770479E1,-3.596484938E0,-1.018883292E1,-9.690102843E0,1.451361820E1
1.077769879E1,-4.175499621E0,-1.081243262E1,-1.056702498E1,1.568456289E1
1.078769379E1,-4.772487475E0,-1.115645706E1,-1.110466008E1,1.644860621E1
1.079768779E1,-5.390411285E0,-1.128931866E1,-1.148228263E1,1.698081459E1
1.080768279E1,-5.831726378E0,-1.129703348E1,-1.161748078E1,1.722201665E1
1.081767679E1,-6.243539929E0,-1.133592214E1,-1.167841227E1,1.743187411E1
1.082767179E1,-6.467564303E0,-1.125729112E1,-1.169142467E1,1.747127363E1
1.083766579E1,-6.542657754E0,-1.111542364E1,-1.163911431E1,1.737319760E1
1.084766079E1,-6.523509293E0,-1.092876765E1,-1.153707922E1,1.717842638E1
1.085765579E1,-6.421537360E0,-1.082269799E1,-1.135951332E1,1.695303739E1
1.086764979E1,-6.243486135E0,-1.054357881E1,-1.118340103E1,1.658965436E1
1.087764479E1,-5.877552177E0,-1.019682840E1,-1.080543233E1,1.597743086E1
1.088763879E1,-5.369061347E0,-9.855169741E0,-1.038284119E1,1.528903468E1
1.089763379E1,-4.952302805E0,-9.495904532E0,-1.002297898E1,1.466825189E1
1.090762779E1,-4.620039454E0,-9.211169688E0,-9.589034305E0,1.407622075E1
1.091762279E1,-4.236228510E0,-8.895767952E0,-9.033486253E0,1.336728070E1
1.092761679E1,-4.047731819E0,-8.513777540E0,-8.388623151E0,1.261893574E1
1.093761179E1,-3.991188952E0,-8.202640763E0,-7.752513331E0,1.197139790E1
1.094760579E1,-3.913919459E0,-7.968215362E0,-7.194666739E0,1.142691783E1
1.095760079E1,-3.813897572E0,-7.680896049E0,-6.600007830E0,1.082137155E1
1.096759579E1,-3.729585108E0,-7.332292069E0,-5.854177932E0,1.009671785E1
1.097758979E1,-3.518608797E0,-6.956290959E0,-5.084190263E0,9.306964188E0
1.098758479E1,-3.099327766E0,-6.523459591E0,-4.387629588E0,8.450600632E0
1.099757879E1,-2.618604194E0,-5.863461556E0,-3.672426821E0,7.397566364E0
1.100757379E1,-2.287947949E0,-4.898119581E0,-2.961467378E0,6.164135810E0
1.101756779E1,-2.280066195E0,-3.731510012E0,-2.340172648E0,4.959765805E0
1.102756279E1,-2.302800462E0,-2.353687318E0,-1.428416312E0,3.589304545E0
1.103755679E1,-1.622131935E0,-1.114781020E0,-1.146329087E-1,1.971595658E0
1.104755179E1,-2.627031201E-1,1.697587037E-1,1.880651080E0,1.906483525E0
1.105754679E1,1.462407346E0,1.510562090E0,4.351335336E0,4.832654786E0
1.106754079E1,2.995641430E0,3.050243899E0,6.840098598E0,8.066275736E0
1.107753579E1,4.026424858E0,5.074464004E0,9.243270902E0,1.128717587E1
1.108752979E1,5.316907691E0,6.946829579E0,1.124210707E1,1.424475061E1
1.109752479E1,7.400600996E0,8.386814607E0,1.246155092E1,1.674508303E1
1.110751879E1,9.778372995E0,9.481175981E0,1.320692824E1,1.897187998E1
1.111751379E1,1.166037829E1,1.066029742E1,1.379670180E1,2.097511248E1
1.112750779E1,1.265927334E1,1.262945020E1,1.410002728E1,2.277215368E1
1.113750279E1,1.389726806E1,1.417602705E1,1.417642700E1,2.439395181E1
1.114749679E1,1.569224281E1,1.480943487E1,1.444867102E1,2.596786360E1
1.115749179E1,1.641527910E1,1.488842374E1,1.501305597E1,2.676786130E1
1.116748679E1,1.516812413E1,1.459645472E1,1.567410709E1,2.624511598E1
1.117748079E1,1.236453625E1,1.430174219E1,1.559477441E1,2.450752079E1
1.118747579E1,9.314257854E0,1.415869123E1,1.454805615E1,2.233539510E1
1.119746979E1,7.414048423E0,1.398534467E1,1.235556195E1,2.008028612E1
1.120746479E1,6.789227822E0,1.325284292E1,9.669207233E0,1.775457767E1
1.121745879E1,6.204405100E0,1.194057219E1,6.998583870E0,1.516746792E1
1.122745379E1,5.869162007E0,1.011974806E1,4.710307015E0,1.261123926E1
1.123744779E1,5.853231853E0,8.204721787E0,2.942152855E0,1.049924027E1
1.124744279E1,5.062110007E0,6.129658973E0,1.429302165E0,8.077164200E0
1.125743779E1,3.700519769E0,3.820566614E0,2.649806106E-1,5.325485005E0
1.126743179E1,2.231712645E0,1.478291892E0,-6.362203324E-1,2.751484065E0
1.127742679E1,8.652961153E-1,-7.989103371E-1,-1.270920389E0,1.732695509E0
1.128742079E1,-4.975080049E-1,-2.827400663E0,-1.807859092E0,3.392648409E0
1.129741579E1,-1.842379299E0,-4.582047170E0,-2.331170860E0,5.461123999E0
1.130740979E1,-3.097602253E0,-6.000174721E0,-2.941376345E0,7.365387376E0
1.131740479E1,-4.141902689E0,-7.224469412E0,-3.730227717E0,9.124851505E0
1.132739879E1,-5.113730396E0,-8.175513775E0,-4.553495216E0,1.066412597E1
1.133739379E1,-5.944851290E0,-9.046819074E0,-5.245348881E0,1.202912620E1
1.134738779E1,-6.721686634E0,-9.744305947E0,-5.656138000E0,1.311962144E1
1.135738279E1,-7.461049511E0,-1.018767634E1,-5.769650583E0,1.388325887E1
1.136737779E1,-8.096644776E0,-1.054730934E1,-5.786861862E0,1.450135032E1
1.137737179E1,-8.733898897E0,-1.080870443E1,-5.881923555E0,1.508993394E1
1.138736679E1,-9.214871560E0,-1.089660680E1,-6.188966696E0,1.555484511E1
1.139736079E1,-9.601395904E0,-1.084848421E1,-6.730546920E0,1.597425037E1
1.140735579E1,-9.841233487E0,-1.070551277E1,-7.464107605E0,1.634535967E1
1.141734979E1,-9.876612650E0,-1.056207823E1,-8.213922966E0,1.663049923E1
1.142734479E1,-9.817271597E0,-1.023266131E1,-8.749657143E0,1.666261321E1
1.143733950E1,-9.537116877E0,-9.969612615E0,-9.258971261E0,1.661560480E1
1.144733450E1,-9.098307316E0,-9.648923242E0,-9.595644583E0,1.636940166E1
1.145732950E1,-8.524049343E0,-9.313719326E0,-9.498098992E0,1.579932497E1
1.146732350E1,-8.012116842E0,-9.068326303E0,-8.994937899E0,1.507771422E1
1.147731850E1,-7.600766975E0,-8.792242999E0,-8.290907407E0,1.427635602E1
1.148731250E1,-7.109913687E0,-8.552725843E0,-7.453470351E0,1.338858515E1
1.149730750E1,-6.671026942E0,-8.224370770E0,-6.681576489E0,1.252143520E1
1.150730150E1,-6.224285048E0,-7.850602713E0,-6.021353921E0,1.168890031E1
1.151729650E1,-5.710756842E0,-7.444440495E0,-5.433312891E0,1.084220120E1
1.152729050E1,-5.247194847E0,-6.917342071E0,-4.954217184E0,9.996346482E0
1.153728550E1,-4.747951974E0,-6.343257760E0,-4.595584643E0,9.159659665E0
1.154728050E1,-4.219370111E0,-5.578929026E0,-4.384266855E0,8.255260690E0
1.155727450E1,-3.883691400E0,-4.550825377E0,-4.071707450E0,7.236841304E0
1.156726950E1,-3.688713071E0,-3.508696012E0,-3.601003082E0,6.235765792E0
1.157726350E1,-3.151995977E0,-2.497884918E0,-2.772769543E0,4.884952266E0
1.158725850E1,-1.997719354E0,-1.477713017E0,-1.738126953E0,3.032425380E0
1.159725250E1,-5.612321305E-1,-2.040327430E-1,-4.595051962E-1,7.534957796E-1
1.160724750E1,1.064992563E0,9.457695901E-1,1.325319960E0,1.945549350E0
1.161724150E1,3.033347200E0,2.189930489E0,3.751005213E0,5.297832660E0
1.162723650E1,5.770390255E0,3.676040400E0,6.805197737E0,9.649942641E0
1.163723150E1,8.516922757E0,5.358080860E0,9.602907409E0,1.390909179E1
1.164722550E1,1.141962620E1,6.643797044E0,1.198654650E1,1.783886765E1
1.165722050E1,1.470596956E1,7.425386174E0,1.411432957E1,2.169369032E1
1.166721450E1,1.738331137E1,8.754026767E0,1.569994944E1,2.500601751E1
1.167720950E1,1.838780221E1,1.075978312E1,1.650642549E1,2.695081233E1
1.168720350E1,1.813166142E1,1.255540808E1,1.640051137E1,2.748403520E1
1.169719850E1,1.817497292E1,1.346322223E1,1.633305906E1,2.789904678E1
1.170719250E1,1.877457682E1,1.354739173E1,1.679702042E1,2.860343427E1
1.171718750E1,1.924844921E1,1.334558326E1,1.828461055E1,2.971421162E1
1.172718150E1,1.817050097E1,1.280175712E1,1.941876340E1,2.951508873E1
1.173717650E1,1.516032862E1,1.235484391E1,1.895605100E1,2.723618184E1
1.174717150E1,1.175508798E1,1.186635231E1,1.676655525E1,2.366663866E1
1.175716550E1,9.110047941E0,1.096587993E1,1.276114003E1,1.913348350E1
1.176716050E1,7.450854891E0,1.003162351E1,8.883394074E0,1.533177743E1
1.177715450E1,6.700759449E0,8.790674776E0,5.748811691E0,1.245893158E1
1.178714950E1,6.308646922E0,7.394575440E0,3.421238038E0,1.030454471E1
1.179714350E1,5.661573572E0,5.801492765E0,1.865731909E0,8.318154193E0
1.180713850E1,4.420161742E0,3.946080607E0,6.890160120E-1,5.965243083E0
1.181713250E1,2.754401684E0,1.837355372E0,-2.364058524E-1,3.319411262E0
1.182712750E1,7.392827708E-1,-4.560032988E-1,-9.949195307E-1,1.320735741E0
1.183712150E1,-1.500154046E0,-2.622107261E0,-1.631564956E0,3.433353005E0
1.184711650E1,-3.123680250E0,-4.746050459E0,-2.484188401E0,6.201093877E0
1.185711150E1,-4.079959626E0,-6.626030279E0,-3.601661478E0,8.574515334E0
1.186710550E1,-4.959599546E0,-7.822367678E0,-5.020686577E0,1.053538597E1
1.187710050E1,-5.435527816E0,-8.819098091E0,-6.604069306E0,1.228556817E1
1.188709450E1,-6.036854889E0,-9.529447669E0,-8.073470507E0,1.387209126E1
1.189708950E1,-7.284206906E0,-1.027991733E1,-9.029875013E0,1.550080686E1
1.190708350E1,-8.812715271E0,-1.113400375E1,-9.465584965E0,1.706538276E1
1.191707850E1,-1.030484518E1,-1.179935608E1,-9.383955495E0,1.826125020E1
1.192707250E1,-1.143958626E1,-1.192634123E1,-9.050827925E0,1.884195412E1
1.193706750E1,-1.186719314E1,-1.190755296E1,-8.899512509E0,1.902160386E1
1.194706250E1,-1.171718750E1,-1.174883848E1,-9.110947242E0,1.892979261E1
1.195705650E1,-1.129935365E1,-1.141734228E1,-9.374254380E0,1.859859519E1
1.196705150E1,-1.065285275E1,-1.099427401E1,-9.468854728E0,1.800045951E1
1.197704550E1,-9.755143762E0,-1.055170527E1,-9.369186013E0,1.715467751E1
1.198704050E1,-8.871325421E0,-1.003348292E1,-8.889236612E0,1.607450534E1
1.199703450E1,-8.023071016E0,-9.541950186E0,-8.254359970E0,1.495168687E1
1.200702950E1,-7.251425661E0,-9.142863100E0,-7.695234591E0,1.397826009E1
1.201702350E1,-6.655179234E0,-8.746458716E0,-7.112018684E0,1.309094192E1
1.202701850E1,-6.163521368E0,-8.291906111E0,-6.621749532E0,1.227160419E1
1.203701350E1,-5.646480739E0,-7.793471907E0,-6.305329796E0,1.150556965E1
1.204700750E1,-5.003911500E0,-7.146955798E0,-6.068005346E0,1.062726665E1
1.205700250E1,-4.311522522E0,-6.514941368E0,-5.893198156E0,9.785881258E0
1.206699650E1,-3.580587821E0,-5.964399701E0,-5.657495724E0,8.966712374E0
1.207699150E1,-2.863801627E0,-5.329690874E0,-5.274325928E0,8.026548360E0
1.208698550E1,-2.234461421E0,-4.690368009E0,-4.835091274E0,7.097216182E0
1.209698050E1,-1.984753738E0,-4.013789610E0,-4.191791718E0,6.133585594E0
1.210697450E1,-1.937495372E0,-3.496112804E0,-3.384321057E0,5.237396497E0
1.211696950E1,-2.063180395E0,-2.926759183E0,-2.658337778E0,4.459752505E0
1.212696450E1,-2.116107345E0,-2.233760633E0,-1.874692183E0,3.603063646E0
1.213695850E1,-1.902656784E0,-1.408750956E0,-1.109151320E0,2.614363927E0
1.214695350E1,-1.294489930E0,-5.461641482E-1,-3.789907908E-1,1.455209083E0
1.215694750E1,-2.854882577E-1,5.442047462E-1,6.640495706E-1,9.047785272E-1
1.216694250E1,1.274367615E0,1.685101770E0,2.114190627E0,2.988876511E0
1.217693650E1,2.776325527E0,2.848425497E0,3.945513427E0,5.602551869E0
1.218693150E1,3.973145906E0,3.761050437E0,6.004350802E0,8.123030059E0
1.219692550E1,4.770262317E0,4.633221416E0,7.914017521E0,1.033701198E1
1.220692050E1,5.970983081E0,5.532268830E0,9.618234131E0,1.260035972E1
1.221691550E1,7.645002916E0,6.282665988E0,1.147788318E1,1.515452948E1
1.222690950E1,9.570957638E0,7.135361354E0,1.378710184E1,1.823734599E1
1.223690450E1,1.115975372E1,8.239375895E0,1.629204435E1,2.139761966E1
1.224689850E1,1.297199647E1,9.703999920E0,1.856486058E1,2.463928480E1
1.225689350E1,1.564066569E1,1.179042387E1,2.029115277E1,2.820240059E1
1.226688750E1,1.832726599E1,1.310600647E1,2.111725675E1,3.088032734E1
1.227688250E1,1.877799276E1,1.381946267E1,2.150380916E1,3.171757193E1
1.228687650E1,1.642324417E1,1.427758734E1,2.046437068E1,2.987244411E1
1.229687150E1,1.264770989E1,1.383293582E1,1.766898645E1,2.575864440E1
1.230686650E1,8.909759755E0,1.288155057E1,1.416932380E1,2.112079309E1
1.231686050E1,6.320990978E0,1.160936133E1,1.125056449E1,1.735820840E1
1.232685550E1,4.674131168E0,1.024625842E1,9.269575186E0,1.458623796E1
1.233684950E1,3.523638279E0,8.812183174E0,8.053349068E0,1.244696872E1
1.234684450E1,3.015932438E0,7.404047930E0,7.490491412E0,1.095551166E1
1.235683850E1,3.014674409E0,5.729986580E0,7.497629108E0,9.906333845E0
1.236683350E1,3.019567067E0,4.123904375E0,7.542794756E0,9.111428279E0
1.237682750E1,2.817052846E0,2.469978497E0,7.016769295E0,7.954346727E0
1.238682250E1,2.037766349E0,8.662112045E-1,6.116109220E0,6.504583425E0
1.239681650E1,1.101692320E0,-1.208013704E0,4.985469382E0,5.246706399E0
1.240681150E1,-1.302724564E-1,-3.334955354E0,3.878958664E0,5.117149445E0
1.241680650E1,-1.076841361E0,-5.279073282E0,2.154248148E0,5.802498352E0
1.242680050E1,-1.548698800E0,-7.222153330E0,1.424001664E-1,7.387709016E0
1.243679525E1,-1.734273930E0,-8.793089676E0,-1.980678229E0,9.178737297E0
1.244678925E1,-1.776565671E0,-1.029808580E1,-4.155638968E0,1.124615899E1
1.245678425E1,-2.150753267E0,-1.157254843E1,-6.293262312E0,1.334746296E1
1.246677825E1,-3.145672798E0,-1.229727807E1,-8.249351245E0,1.513836521E1
1.247677325E1,-4.231628214E0,-1.295098158E1,-1.016148549E1,1.699677583E1
1.248676725E1,-5.119045515E0,-1.345511448E1,-1.171544386E1,1.856061307E1
1.249676225E1,-5.976571265E0,-1.352544011E1,-1.264791688E1,1.945833332E1
1.250675725E1,-6.515606781E0,-1.354928388E1,-1.328603054E1,2.006376916E1
1.251675125E1,-6.799684398E0,-1.354877167E1,-1.383947535E1,2.052647071E1
1.252674625E1,-7.031880839E0,-1.337514562E1,-1.425735246E1,2.077532112E1
1.253674025E1,-7.090548293E0,-1.317545619E1,-1.433760784E1,2.072282605E1
1.254673525E1,-7.047827366E0,-1.284357056E1,-1.429637444E1,2.046986804E1
1.255672925E1,-6.974386922E0,-1.239580014E1,-1.411232982E1,2.003636162E1
1.256672425E1,-6.800594809E0,-1.185564957E1,-1.382446321E1,1.944017231E1
1.257671825E1,-6.329889271E0,-1.133150398E1,-1.334959796E1,1.861940511E1
1.258671325E1,-5.498139217E0,-1.084398419E1,-1.241175837E1,1.737450068E1
1.259670825E1,-4.648653680E0,-1.038291370E1,-1.112298292E1,1.591023655E1
1.260670225E1,-3.933716961E0,-9.965830636E0,-9.847997546E0,1.455249000E1
1.261669725E1,-3.270042197E0,-9.557435367E0,-8.653624812E0,1.330123938E1
1.262669125E1,-2.659915942E0,-9.175795203E0,-7.510984148E0,1.215258217E1
1.263668625E1,-2.285477501E0,-8.802781436E0,-6.377577993E0,1.110791922E1
1.264668025E1,-2.005593507E0,-8.381135792E0,-5.431127787E0,1.018641210E1
1.265667525E1,-1.937185469E0,-7.937120454E0,-4.622356120E0,9.387051973E0
1.266666925E1,-1.910386510E0,-7.516843643E0,-3.751757165E0,8.615578727E0
1.267666425E1,-1.980097893E0,-6.958844438E0,-2.849480919E0,7.775978722E0
1.268665825E1,-1.915109599E0,-6.156725149E0,-1.960909377E0,6.739293355E0
1.269665325E1,-1.575563540E0,-5.034666685E0,-1.214082529E0,5.413341434E0
1.270664825E1,-1.032003449E0,-3.876844311E0,-6.927781105E-1,4.071227633E0
1.271664225E1,-2.238869637E-2,-2.474784324E0,-6.815514565E-3,2.474894978E0
1.272663725E1,1.574158747E0,-9.527388865E-1,8.867729384E-1,2.042560498E0
1.273663125E1,3.306399015E0,7.008133543E-1,2.387188355E0,4.137883764E0
1.274662625E1,4.910444927E0,2.273115610E0,4.730409157E0,7.187231369E0
1.275662025E1,6.049404184E0,3.640007519E0,7.361653277E0,1.019994533E1
1.276661525E1,7.189813550E0,4.950258619E0,9.740513443E0,1.307960555E1
1.277660925E1,8.444086915E0,6.177483934E0,1.153537651E1,1.557333692E1
1.278660425E1,9.856651425E0,7.002951740E0,1.301468816E1,1.776448756E1
1.279659925E1,1.115888599E1,8.459186765E0,1.418421315E1,1.993164519E1
1.280659325E1,1.178763943E1,1.119486859E1,1.424020141E1,2.161149838E1
1.281658825E1,1.301148623E1,1.367203448E1,1.414157175E1,2.358404868E1
1.282658225E1,1.496281435E1,1.510044612E1,1.532763851E1,2.620774291E1
1.283657725E1,1.629946446E1,1.586667578E1,1.715718317E1,2.849197916E1
1.284657125E1,1.629246886E1,1.585507841E1,1.923062338E1,2.977658356E1
1.285656625E1,1.453052619E1,1.521389613E1,2.050136251E1,2.937523943E1
1.286656025E1,1.180185752E1,1.409428298E1,2.016136797E1,2.728394055E1
1.287655525E1,9.172007961E0,1.250157511E1,1.826708294E1,2.396041379E1
1.288654925E1,7.096387907E0,1.077928007E1,1.563269009E1,2.027147256E1
1.289654425E1,5.780333446E0,8.885007321E0,1.313123019E1,1.687556861E1
1.290653925E1,4.672645976E0,7.033542033E0,1.089789435E1,1.378653094E1
1.291653325E1,3.617110991E0,5.145443355E0,8.738555034E0,1.076668117E1
1.292652825E1,2.786692640E0,3.007460407E0,6.665245800E0,7.825341881E0
1.293652225E1,2.118330748E0,7.775340861E-1,4.887647218E0,5.383398531E0
1.294651725E1,1.082457612E0,-1.180657505E0,3.317105559E0,3.683592800E0
1.295651125E1,-1.263364032E-1,-2.931123253E0,1.769455165E0,3.426137182E0
1.296650625E1,-1.027116347E0,-4.532925296E0,1.853427029E-1,4.651530033E0
1.297650025E1,-1.691067684E0,-6.138242100E0,-1.507888743E0,6.543046267E0
1.298649525E1,-2.201396002E0,-7.610227770E0,-3.026552151E0,8.480667957E0
1.299649025E1,-2.603590006E0,-8.852284548E0,-4.440193718E0,1.023996791E1
1.300648425E1,-3.099969498E0,-9.811679320E0,-5.861726103E0,1.184224197E1
1.301647925E1,-3.783104088E0,-1.049896222E1,-7.210767632E0,1.328665699E1
1.302647325E1,-4.474804557E0,-1.098185569E1,-8.394292027E0,1.452890804E1
1.303646825E1,-5.113063813E0,-1.121589635E1,-9.247522413E0,1.540962112E1
1.304646225E1,-5.693261973E0,-1.135417949E1,-9.867728391E0,1.608423723E1
1.305645725E1,-6.250189968E0,-1.133225945E1,-1.034381103E1,1.656742000E1
1.306645125E1,-6.707722313E0,-1.118591065E1,-1.068467446E1,1.686061696E1
1.307644625E1,-7.061482369E0,-1.090372637E1,-1.080757124E1,1.689850224E1
1.308644025E1,-7.260555503E0,-1.048357352E1,-1.077784634E1,1.669679465E1
1.309643525E1,-7.415291541E0,-1.006953685E1,-1.073911321E1,1.648364867E1
1.310643025E1,-7.446181211E0,-9.640979215E0,-1.066323974E1,1.618946499E1
1.311642425E1,-7.260151461E0,-9.217793999E0,-1.043683906E1,1.570366629E1
1.312641925E1,-6.916514690E0,-8.842676988E0,-1.020025721E1,1.516826816E1
1.313641325E1,-6.511335974E0,-8.302879581E0,-9.898292956E0,1.446760205E1
1.314640825E1,-6.003225798E0,-7.857572009E0,-9.589486295E0,1.377455645E1
1.315640225E1,-5.496805467E0,-7.560172096E0,-9.130786260E0,1.306684087E1
1.316639725E1,-5.080915822E0,-7.361548027E0,-8.626638742E0,1.242686569E1
1.317639225E1,-4.844530142E0,-7.098216916E0,-7.993549594E0,1.173673680E1
1.318638625E1,-4.605584844E0,-6.893960810E0,-7.391916711E0,1.110758930E1
1.319638125E1,-4.392168197E0,-6.673355888E0,-6.855062792E0,1.052695142E1
1.320637525E1,-4.282148449E0,-6.416961914E0,-6.375013404E0,1.000774657E1
1.321637025E1,-4.172217579E0,-6.062148775E0,-5.978908982E0,9.481793075E0
1.322636425E1,-4.012889138E0,-5.549067296E0,-5.558756717E0,8.820158917E0
1.323635925E1,-3.656864749E0,-4.840276585E0,-5.117719951E0,7.936749631E0
1.324635325E1,-3.320418884E0,-4.115738738E0,-4.626487178E0,7.026298495E0
1.325634825E1,-2.817691947E0,-3.221764954E0,-3.887985595E0,5.782351538E0
1.326634225E1,-1.940454648E0,-2.184704540E0,-2.756791441E0,4.017237511E0
1.327633725E1,-5.257164350E-1,-1.083506602E0,-8.289416367E-1,1.462022080E0
1.328633225E1,1.533469435E0,2.379389924E-1,2.063898726E0,2.582212505E0
1.329632625E1,3.798366198E0,1.516665706E0,5.825668078E0,7.118024248E0
1.330632125E1,5.600149741E0,2.604600405E0,9.257417071E0,1.112858442E1
1.331631525E1,6.727192372E0,3.970910223E0,1.172160449E1,1.408613705E1
1.332631025E1,8.227471549E0,5.573161333E0,1.347608961E1,1.674384682E1
1.333630425E1,1.078319654E1,7.223018718E0,1.529677340E1,2.006092230E1
1.334629925E1,1.332243881E1,8.888947760E0,1.684618614E1,2.324424135E1
1.335629325E1,1.509392764E1,1.083973210E1,1.799719885E1,2.586939524E1
1.336628825E1,1.602801099E1,1.303980897E1,1.795051702E1,2.737069264E1
1.337628225E1,1.715353919E1,1.508408444E1,1.737076910E1,2.869698815E1
1.338627725E1,1.841105776E1,1.607146281E1,1.736890383E1,2.998229119E1
1.339627225E1,1.837475123E1,1.624347270E1,1.811766787E1,3.049150335E1
1.340626625E1,1.622754722E1,1.581934374E1,1.857843781E1,2.930432181E1
1.341626125E1,1.296033595E1,1.479838597E1,1.815255820E1,2.676710490E1
1.342625525E1,9.725877278E0,1.337642850E1,1.702033728E1,2.373211767E1
1.343625062E1,7.442985123E0,1.159792418E1,1.547828618E1,2.072407334E1
1.344624462E1,6.223641270E0,9.682029008E0,1.367258061E1,1.787218109E1
1.345623962E1,5.292915981E0,7.615808938E0,1.171628001E1,1.494278162E1
1.346623362E1,4.304355005E0,5.572067903E0,9.342946048E0,1.169897660E1
1.347622862E1,3.370519874E0,3.243305511E0,6.723111600E0,8.190217607E0
1.348622263E1,2.291095506E0,9.209966916E-1,4.040789128E0,4.735539072E0
1.349621762E1,1.065579916E0,-1.179481630E0,1.485102144E0,2.175354190E0
1.350621262E1,-3.275063494E-1,-2.940951837E0,-8.797603726E-1,3.087140494E0
1.351620662E1,-1.654582228E0,-4.586264766E0,-2.979201398E0,5.713764768E0
1.352620162E1,-2.780310697E0,-6.285445170E0,-4.696756677E0,8.324450242E0
1.353619562E1,-3.694241613E0,-7.804499756E0,-6.131868635E0,1.059044147E1
1.354619062E1,-4.473085768E0,-9.108683785E0,-7.200810408E0,1.244300153E1
1.355618463E1,-5.329247071E0,-1.013811534E1,-7.963400765E0,1.394983902E1
1.356617962E1,-6.079662355E0,-1.086767945E1,-8.618446208E0,1.514418588E1
1.357617362E1,-6.814260921E0,-1.143634456E1,-9.123830997E0,1.613903408E1
1.358616862E1,-7.381632628E0,-1.177980182E1,-9.649732497E0,1.692245752E1
1.359616362E1,-7.752271256E0,-1.189897626E1,-1.027144823E1,1.752672230E1
1.360615762E1,-8.010226437E0,-1.180815263E1,-1.074207424E1,1.786024510E1
1.361615262E1,-8.339960868E0,-1.150444357E1,-1.103484901E1,1.799097168E1
1.362614662E1,-8.425106853E0,-1.112951894E1,-1.121192609E1,1.790407506E1
1.363614163E1,-8.521350853E0,-1.065773634E1,-1.130799233E1,1.772206125E1
1.364613562E1,-8.388426100E0,-1.022026170E1,-1.124092126E1,1.735447356E1
1.365613062E1,-7.998044348E0,-9.868876784E0,-1.098280645E1,1.679242329E1
1.366612462E1,-7.458764420E0,-9.492859302E0,-1.059469634E1,1.606222696E1
1.367611962E1,-6.771107301E0,-9.007104785E0,-1.009664338E1,1.513003761E1
1.368611362E1,-5.959009153E0,-8.449876828E0,-9.541765414E0,1.406966580E1
1.369610862E1,-5.090283061E0,-7.854744295E0,-8.861271719E0,1.288914761E1
1.370610363E1,-4.347372970E0,-7.239159372E0,-8.046890234E0,1.166436979E1
1.371609762E1,-3.668155430E0,-6.697161072E0,-7.207360459E0,1.050016074E1
1.372609262E1,-3.162121892E0,-6.207438635E0,-6.322411267E0,9.407666741E0
1.373608662E1,-2.825931551E0,-5.811299715E0,-5.491001521E0,8.479869764E0
1.374608162E1,-2.557013133E0,-5.452312834E0,-4.830877771E0,7.720324568E0
1.375607562E1,-2.583959149E0,-5.111585053E0,-4.440713536E0,7.247419081E0
1.376607062E1,-2.774073180E0,-4.755701873E0,-4.203947495E0,6.927146371E0
1.377606463E1,-2.887702706E0,-4.251612242E0,-4.020923797E0,6.525554518E0
1.378605962E1,-2.769694785E0,-3.722421100E0,-3.640816773E0,5.897726241E0
1.379605462E1,-2.437895994E0,-3.049583164E0,-3.099556392E0,4.985032014E0
1.380604862E1,-1.940968618E0,-2.244165460E0,-2.329585680E0,3.772347708E0
1.381604362E1,-1.332399476E0,-1.564503824E0,-1.646615689E0,2.633306630E0
1.382603762E1,-6.060656565E-1,-7.416204876E-1,-7.400727296E-1,1.210381829E0
1.383603262E1,4.325419307E-1,1.880663359E-1,6.475118905E-1,8.010824657E-1
1.384602663E1,1.303493765E0,1.066560786E0,2.305929599E0,2.855513828E0
1.385602162E1,2.179357846E0,1.986880370E0,4.344281840E0,5.250721753E0
1.386601562E1,3.261562273E0,3.063734595E0,6.545062714E0,7.928562547E0
1.387601062E1,4.693406807E0,4.263122486E0,8.589662704E0,1.067635641E1
1.388600462E1,6.791521685E0,5.582456651E0,1.023314429E1,1.349095367E1
1.389599962E1,9.536729207E0,7.106635737E0,1.219037576E1,1.703111085E1
1.390599462E1,1.246178013E1,9.287364755E0,1.418359569E1,2.104104310E1
1.391598862E1,1.471664190E1,1.200889690E1,1.601622066E1,2.484577384E1
1.392598362E1,1.624111159E1,1.431692390E1,1.783561572E1,2.805097510E1
1.393597762E1,1.779994654E1,1.522423752E1,1.964706793E1,3.057160093E1
1.394597262E1,1.889362145E1,1.491213069E1,2.231711476E1,3.282368328E1
1.395596662E1,1.813163102E1,1.410356835E1,2.479173127E1,3.379787897E1
1.396596162E1,1.512973833E1,1.284780512E1,2.541812711E1,3.224990332E1
1.397595562E1,1.097907359E1,1.180114416E1,2.339433560E1,2.840954063E1
1.398595062E1,7.195554346E0,1.118789520E1,1.912629970E1,2.329721747E1
1.399594462E1,5.038051053E0,1.060336542E1,1.391070964E1,1.820222952E1
1.400593962E1,4.325277512E0,9.827941597E0,8.768972835E0,1.386330935E1
1.401593462E1,4.284452544E0,8.654544579E0,4.365437651E0,1.059786400E1
1.402592862E1,4.264121483E0,7.005228061E0,1.290649479E0,8.301911123E0
1.403592362E1,3.861855851E0,5.013569346E0,-8.826494819E-1,6.389747906E0
1.404591762E1,2.935897504E0,2.699353073E0,-2.413497317E0,4.661648900E0
1.405591262E1,1.685980899E0,6.748856306E-2,-3.328861971E0,3.732078284E0
1.406590663E1,2.833288810E-1,-2.585398441E0,-3.850099146E0,4.646269879E0
1.407590162E1,-1.297284022E0,-5.016367239E0,-4.077804927E0,6.593586211E0
1.408589562E1,-2.925716040E0,-7.126387632E0,-3.981967893E0,8.671867349E0
1.409589062E1,-4.352000749E0,-9.009738956E0,-3.840209166E0,1.071739301E1
1.410588462E1,-5.554212846E0,-1.058933094E1,-3.858154855E0,1.256457595E1
1.411587962E1,-6.568254526E0,-1.170440899E1,-4.227372025E0,1.407145450E1
1.412587362E1,-7.444920552E0,-1.253477443E1,-5.217016783E0,1.548433648E1
1.413586863E1,-8.320523554E0,-1.311400663E1,-6.699262562E0,1.691414795E1
1.414586362E1,-9.204425510E0,-1.344697749E1,-7.980956445E0,1.814492542E1
1.415585762E1,-1.008272817E1,-1.336070767E1,-9.005043642E0,1.900686002E1
1.416585262E1,-1.053394962E1,-1.323603334E1,-9.569940807E0,1.943554579E1
1.417584662E1,-1.047758480E1,-1.322234618E1,-9.808539366E0,1.951455011E1
1.418584162E1,-1.025723248E1,-1.300556300E1,-9.818190780E0,1.925493072E1
1.419583562E1,-1.003763211E1,-1.274258447E1,-9.681347222E0,1.889063263E1
1.420583063E1,-9.659321930E0,-1.245916759E1,-9.447313585E0,1.837893063E1
1.421582462E1,-9.082425109E0,-1.202233146E1,-8.976612141E0,1.753871333E1
1.422581962E1,-8.408019535E0,-1.155361398E1,-8.492294285E0,1.662226972E1
1.423581462E1,-7.772555832E0,-1.106741098E1,-7.943526664E0,1.568438159E1
1.424580862E1,-7.188773330E0,-1.048765019E1,-7.255994675E0,1.463962866E1
1.425580362E1,-6.507721226E0,-9.920637506E0,-6.628435239E0,1.359064523E1
1.426579762E1,-5.808649172E0,-9.388347339E0,-5.969504905E0,1.255055615E1
1.427579262E1,-5.172901295E0,-8.769662806E0,-5.296371101E0,1.147682188E1
1.428578662E1,-4.609267713E0,-8.211377673E0,-4.781702102E0,1.056109592E1
1.429578162E1,-3.981537538E0,-7.595172944E0,-4.406076969E0,9.641203632E0
1.430577562E1,-3.457742205E0,-6.904690450E0,-4.193609033E0,8.787325423E0
1.431577062E1,-3.020354687E0,-6.136068106E0,-3.918110451E0,7.881970803E0
1.432576462E1,-2.494097092E0,-5.383339663E0,-3.503430009E0,6.890202324E0
1.433575962E1,-1.775302380E0,-4.452521403E0,-2.790384280E0,5.546430367E0
1.434575462E1,-1.114079939E0,-3.335096272E0,-2.000187464E0,4.045341907E0
1.435574863E1,-8.096376389E-1,-2.220374894E0,-1.411677487E0,2.752891408E0
1.436574362E1,-6.175226909E-1,-1.219093008E0,-8.011960137E-1,1.584120288E0
1.437573762E1,-1.344666642E-1,-1.372218722E-1,1.801123685E-1,2.633469029E-1
1.438573262E1,9.496971649E-1,1.234282320E0,1.636412882E0,2.259031800E0
1.439572662E1,2.435820233E0,2.587249085E0,3.454200547E0,4.955661353E0
1.440572162E1,4.656365865E0,3.993760557E0,5.762197722E0,8.416340597E0
1.441571562E1,6.952300819E0,5.489546733E0,8.156727841E0,1.204167011E1
1.442571063E1,9.256562208E0,6.705548903E0,1.016577033E1,1.529677144E1
1.443570779E1,1.164315707E1,7.455241472E0,1.163093756E1,1.806716471E1
1.444570279E1,1.321343034E1,8.871880322E0,1.280833758E1,2.042935421E1
1.445569679E1,1.410210889E1,1.144952652E1,1.329131993E1,2.250822779E1
1.446569179E1,1.597843361E1,1.361546033E1,1.375375751E1,2.509695094E1
1.447568679E1,1.901354784E1,1.516908658E1,1.545763615E1,2.881934601E1
1.448568079E1,2.223059468E1,1.640490146E1,1.816341648E1,3.306402622E1
1.449567579E1,2.321545290E1,1.683694637E1,2.092194571E1,3.549884265E1
1.450566979E1,2.076891239E1,1.685909914E1,2.231686684E1,3.483704194E1
1.451566479E1,1.584397104E1,1.652577861E1,2.123498693E1,3.122590986E1
1.452565879E1,1.111694158E1,1.569276205E1,1.811777312E1,2.642163646E1
1.453565379E1,7.720072979E0,1.410572364E1,1.426586835E1,2.149618491E1
1.454564779E1,5.580532333E0,1.205070099E1,1.080207369E1,1.711860191E1
1.455564279E1,4.112546158E0,9.850380871E0,7.907597862E0,1.328431945E1
1.456563679E1,2.869929509E0,7.270705100E0,5.490509770E0,9.552242961E0
1.457563179E1,1.642987491E0,4.439054680E0,3.636746526E0,5.969132236E0
1.458562579E1,2.932752872E-1,1.426032987E0,2.432422416E0,2.834829674E0
1.459562079E1,-9.730699477E-1,-1.653435881E0,1.554209216E0,2.469064929E0
1.460561579E1,-2.204374281E0,-4.639339358E0,4.815977311E-1,5.158940979E0
1.461560979E1,-3.148372457E0,-7.136223233E0,-4.311742669E-1,7.811775881E0
1.462560479E1,-4.003605514E0,-9.223192148E0,-1.463940486E0,1.016067184E1
1.463559879E1,-4.757200222E0,-1.086011549E1,-2.743362141E0,1.216959729E1
1.464559379E1,-5.444139011E0,-1.210544028E1,-4.230416670E0,1.393114350E1
1.465558779E1,-6.006838793E0,-1.292643613E1,-5.856089972E0,1.541001795E1
1.466558279E1,-6.526628197E0,-1.344939824E1,-7.383180386E0,1.667316830E1
1.467557679E1,-7.191373002E0,-1.356385281E1,-8.671644761E0,1.763211194E1
1.468557179E1,-8.044480011E0,-1.341863955E1,-9.642441604E0,1.837798210E1
1.469556579E1,-8.700190283E0,-1.321829289E1,-1.034458286E1,1.890573914E1
1.470556079E1,-9.034040569E0,-1.306091157E1,-1.060300173E1,1.909515503E1
1.471555579E1,-9.225317026E0,-1.276419812E1,-1.050254422E1,1.892972961E1
1.472554979E1,-9.079323161E0,-1.247145844E1,-1.013446083E1,1.845748306E1
1.473554479E1,-8.834682090E0,-1.212037992E1,-9.706203151E0,1.786520631E1
1.474553879E1,-8.591944288E0,-1.155608150E1,-9.269421989E0,1.712561562E1
1.475553379E1,-8.351781015E0,-1.095521461E1,-8.835710031E0,1.636577969E1
1.476552779E1,-8.109887550E0,-1.042947742E1,-8.517824398E0,1.571933865E1
1.477552279E1,-7.792661483E0,-9.926895196E0,-8.156348941E0,1.502647162E1
1.478551679E1,-7.241992348E0,-9.314829127E0,-7.505333984E0,1.398365235E1
1.479551179E1,-6.657280723E0,-8.722354739E0,-6.746482337E0,1.288075629E1
1.480550579E1,-6.180443795E0,-8.184360613E0,-5.895396709E0,1.182951168E1
1.481550079E1,-5.860819200E0,-7.548468309E0,-5.107306645E0,1.083573517E1
1.482549479E1,-5.486656455E0,-6.994117182E0,-4.476433007E0,9.952865249E0
1.483548979E1,-4.841996836E0,-6.476312907E0,-4.000052454E0,9.021528798E0
1.484548479E1,-4.261837853E0,-5.755584521E0,-3.623983809E0,8.026411010E0
1.485547879E1,-3.981940411E0,-5.129090447E0,-3.545210704E0,7.398103621E0
1.486547379E1,-3.792427474E0,-4.750580297E0,-3.609970372E0,7.069823575E0
1.487546779E1,-3.782131112E0,-4.293216351E0,-3.758340545E0,6.845534752E0
1.488546279E1,-3.664400933E0,-3.967211275E0,-3.952293273E0,6.692325576E0
1.489545679E1,-3.458656125E0,-3.426147945E0,-4.007437195E0,6.305580449E0
1.490545179E1,-2.917667055E0,-2.851435059E0,-3.674701973E0,5.490619048E0
1.491544579E1,-2.308666096E0,-2.388936673E0,-3.137291983E0,4.569415560E0
1.492544079E1,-1.895880153E0,-1.549911513E0,-2.461722229E0,3.472270667E0
1.493543479E1,-1.495025454E0,-7.413819212E-1,-1.488331561E0,2.236040942E0
1.494542979E1,-8.892159051E-1,-3.783674777E-2,-2.857674623E-1,9.347724792E-1
1.495542479E1,-1.381305295E-1,1.049154210E0,1.567152028E0,1.890970671E0
1.496541879E1,1.349733254E0,2.591218175E0,4.490301433E0,5.357144617E0
1.497541379E1,3.779616809E0,4.734352520E0,7.764114207E0,9.847896548E0
1.498540779E1,7.383819487E0,7.179465732E0,1.082766111E1,1.494335181E1
1.499540279E1,1.199167802E1,9.483460488E0,1.358790007E1,2.045403121E1
1.500539679E1,1.679082003E1,1.149466703E1,1.585890717E1,2.579852600E1
1.501539179E1,2.002787136E1,1.357811884E1,1.726617293E1,2.972543810E1
1.502538579E1,2.113068664E1,1.559628883E1,1.848855208E1,3.211816777E1
1.503538079E1,2.167991326E1,1.651005077E1,2.006631329E1,3.384165103E1
1.504537479E1,2.256588104E1,1.624974091E1,2.208608425E1,3.551152185E1
1.505536979E1,2.231384500E1,1.542867723E1,2.367325715E1,3.600520606E1
1.506536379E1,1.962489997E1,1.422239313E1,2.365522901E1,3.386713783E1
1.507535879E1,1.513214972E1,1.308347948E1,2.160886725E1,2.944660481E1
1.508535279E1,1.048765487E1,1.242709912E1,1.804570501E1,2.429138050E1
1.509534779E1,7.919117462E0,1.158980591E1,1.372072776E1,1.962891725E1
1.510534279E1,6.922829098E0,1.043403824E1,9.761359937E0,1.587699167E1
1.511533679E1,5.964859293E0,9.065827788E0,6.463688768E0,1.263123321E1
1.512533179E1,4.774459156E0,7.363292837E0,3.812384605E0,9.568062396E0
1.513532579E1,3.444794716E0,4.947473005E0,1.693320324E0,6.261903344E0
1.514532079E1,1.815360485E0,2.388764765E0,1.411745900E-1,3.003608007E0
1.515531479E1,9.955644786E-2,1.306384921E-2,-1.421830008E0,1.425371082E0
1.516530979E1,-1.100443647E0,-2.314454840E0,-2.917270614E0,3.883058751E0
1.517530379E1,-2.245432552E0,-4.341761105E0,-4.241599470E0,6.471786686E0
1.518529879E1,-3.334414779E0,-6.261597301E0,-5.302611834E0,8.856840009E0
1.519529279E1,-4.198942570E0,-7.915213276E0,-6.076592567E0,1.082620419E1
1.520528779E1,-4.824931737E0,-9.139997379E0,-6.630730855E0,1.227949958E1
1.521528179E1,-5.490858849E0,-1.007320657E1,-7.044347688E0,1.346260954E1
1.522527679E1,-6.251795613E0,-1.081537611E1,-7.519375488E0,1.458075157E1
1.523527179E1,-7.188903723E0,-1.122211427E1,-8.061948568E0,1.557598152E1
1.524526579E1,-8.266905756E0,-1.130399751E1,-8.603436406E0,1.643597300E1
1.525526079E1,-9.153474627E0,-1.129793980E1,-9.124161365E0,1.716624193E1
1.526525479E1,-9.812333039E0,-1.120934396E1,-9.322731639E0,1.757397499E1
1.527524979E1,-1.015492725E1,-1.117243165E1,-9.254205780E0,1.770836246E1
1.528524379E1,-1.021805028E1,-1.112440496E1,-9.027159566E0,1.759689027E1
1.529523879E1,-1.020119627E1,-1.098850631E1,-8.615992717E0,1.729297565E1
1.530523279E1,-1.012394052E1,-1.079079792E1,-8.204939888E0,1.691911729E1
1.531522779E1,-9.905258160E0,-1.055377636E1,-7.849966536E0,1.646567063E1
1.532522179E1,-9.629525689E0,-1.024094213E1,-7.610814831E0,1.598527958E1
1.533521679E1,-9.268799846E0,-9.936365347E0,-7.311355528E0,1.543042211E1
1.534521079E1,-8.796873409E0,-9.548298508E0,-7.052661259E0,1.477481022E1
1.535520579E1,-8.238259077E0,-9.184955451E0,-6.742392794E0,1.406030511E1
1.536520079E1,-7.645943733E0,-8.772436725E0,-6.356088306E0,1.325956109E1
1.537519479E1,-7.065054433E0,-8.280300558E0,-5.843851165E0,1.235430969E1
1.538518979E1,-6.532880040E0,-7.837014368E0,-5.315016117E0,1.150420411E1
1.539518379E1,-6.088943641E0,-7.406480371E0,-4.813696897E0,1.072860028E1
1.540517879E1,-5.801393362E0,-6.867037890E0,-4.456206318E0,1.003345150E1
1.541517279E1,-5.439263018E0,-6.406325828E0,-4.286727111E0,9.434120103E0
1.542516779E1,-4.979911603E0,-5.845376703E0,-4.180996588E0,8.743493630E0
1.543516179E1,-4.363556017E0,-5.331140984E0,-4.124434133E0,8.029485800E0
1.544515400E1,-3.871208180E0,-4.753478762E0,-4.056622218E0,7.351054138E0
1.545514800E1,-3.330525504E0,-4.201198719E0,-3.613904963E0,6.465506932E0
1.546514300E1,-2.624338558E0,-3.568417134E0,-3.132116028E0,5.425025762E0
1.547513700E1,-1.638252416E0,-2.964958166E0,-2.933818234E0,4.481309779E0
1.548513200E1,-7.949079180E-1,-2.109064958E0,-2.727844216E0,3.538526199E0
1.549512600E1,-3.278627372E-1,-1.223235760E0,-2.230056714E0,2.564557008E0
1.550512100E1,4.751418203E-1,-3.629051006E-1,-1.237495950E0,1.374356609E0
1.551511600E1,1.220117440E0,5.587616819E-1,4.416285038E-1,1.412776317E0
1.552511000E1,2.113928087E0,1.668370547E0,2.465685471E0,3.651267873E0
1.553510500E1,3.869257548E0,3.046313401E0,4.746422342E0,6.839569019E0
1.554509900E1,6.863562305E0,4.906668795E0,6.660101420E0,1.074899238E1
1.555509400E1,1.108741781E1,6.864437048E0,8.344493045E0,1.548166315E1
1.556508800E1,1.576166096E1,8.474221711E0,9.956604899E0,2.047868089E1
1.557508300E1,1.920576921E1,1.007234352E1,1.131121181E1,2.445929654E1
1.558507700E1,2.085837011E1,1.133750908E1,1.259938382E1,2.687666624E1
1.559507200E1,2.104511614E1,1.258055579E1,1.441430694E1,2.844186249E1
1.560506600E1,2.091273050E1,1.335775834E1,1.616128189E1,2.961349418E1
1.561506100E1,2.140999409E1,1.360161763E1,1.734535359E1,3.072870223E1
1.562505500E1,2.114779325E1,1.317980885E1,1.827612039E1,3.090231540E1
1.563505000E1,1.830711064E1,1.250989569E1,1.786814028E1,2.847662598E1
1.564504400E1,1.422110908E1,1.169206669E1,1.574042855E1,2.422200359E1
1.565503900E1,1.033619912E1,1.105100603E1,1.353385776E1,2.030091260E1
1.566503300E1,7.518308371E0,1.019561919E1,1.216279562E1,1.756158332E1
1.567502800E1,5.750433124E0,9.545563765E0,1.134841179E1,1.590508469E1
1.568502300E1,4.811978985E0,9.113113051E0,1.028603820E1,1.456044481E1
1.569501700E1,4.526752390E0,8.479691196E0,8.952019921E0,1.313526972E1
1.570501200E1,4.462035407E0,7.482121707E0,7.439002585E0,1.145559534E1
1.571500600E1,4.343074974E0,5.891798333E0,6.013751956E0,9.473162113E0
1.572500100E1,3.752752946E0,3.713772483E0,5.085222296E0,7.330398797E0
1.573499500E1,2.595966114E0,1.312775928E0,4.489005105E0,5.349166994E0
1.574499000E1,1.146482284E0,-1.145277173E0,3.418795364E0,3.783416864E0
1.575498400E1,-3.956267041E-1,-3.515695129E0,1.689258263E0,3.920488006E0
1.576497900E1,-2.235199340E0,-5.821594323E0,-5.642411077E-1,6.261425124E0
1.577497300E1,-4.211314986E0,-7.851984410E0,-2.863220122E0,9.358785314E0
1.578496800E1,-5.939532663E0,-9.615847297E0,-4.985772852E0,1.235315743E1
1.579496200E1,-7.600461751E0,-1.091031735E1,-6.901948691E0,1.498128630E1
1.580495700E1,-9.097361822E0,-1.185191203E1,-8.156255971E0,1.702217149E1
1.581495100E1,-1.027633299E1,-1.248956843E1,-8.702977066E0,1.836665863E1
1.582494600E1,-1.098422381E1,-1.300443565E1,-8.813038037E0,1.916867650E1
1.583494100E1,-1.146578178E1,-1.324599349E1,-8.741876253E0,1.957909333E1
1.584493500E1,-1.189103458E1,-1.321818647E1,-8.659928695E0,1.977653968E1
1.585493000E1,-1.204778673E1,-1.317167187E1,-8.578578722E0,1.980490136E1
1.586492400E1,-1.223027950E1,-1.292771784E1,-8.361341797E0,1.966259551E1
1.587491900E1,-1.232654104E1,-1.245574463E1,-8.066566114E0,1.929141460E1
1.588491300E1,-1.212915074E1,-1.193714338E1,-7.775158428E0,1.871001813E1
1.589490800E1,-1.170999659E1,-1.135869588E1,-7.478120458E0,1.794620511E1
1.590490200E1,-1.097160084E1,-1.082285470E1,-7.065762531E0,1.695391427E1
1.591489700E1,-1.011703028E1,-1.018876158E1,-6.512062783E0,1.576617030E1
1.592489100E1,-9.221502303E0,-9.631490353E0,-5.813954351E0,1.454660704E1
1.593488600E1,-8.417406655E0,-9.081617609E0,-5.035373029E0,1.336725457E1
1.594488000E1,-7.697825493E0,-8.586670099E0,-4.215515041E0,1.227835444E1
1.595487500E1,-7.079481268E0,-8.094956685E0,-3.280885566E0,1.124329084E1
1.596486900E1,-6.639141490E0,-7.442588682E0,-2.572794768E0,1.029998053E1
1.597486400E1,-6.304248646E0,-6.901035356E0,-2.213864604E0,9.605677303E0
1.598485900E1,-6.185681146E0,-6.414020764E0,-2.063485327E0,9.146599658E0
1.599485300E1,-6.077784230E0,-5.897029837E0,-2.156873255E0,8.738794212E0
1.600484800E1,-5.822364401E0,-5.228243437E0,-2.451741908E0,8.200335057E0
1.601484200E1,-5.403179265E0,-4.765449182E0,-3.138673096E0,7.858442650E0
1.602483700E1,-4.999783366E0,-4.258175742E0,-3.569856426E0,7.474875869E0
1.603483100E1,-4.552697071E0,-3.472694120E0,-3.654505105E0,6.792794906E0
1.604482600E1,-3.512223052E0,-2.668335348E0,-3.454728843E0,5.602756078E0
1.605482000E1,-1.977766315E0,-1.505618269E0,-3.144506278E0,4.008287128E0
1.606481500E1,-5.368802315E-1,-1.350771135E-1,-2.803020698E0,2.857168396E0
1.607480900E1,2.204838842E-1,1.071253762E0,-2.465946257E0,2.697607960E0
1.608480400E1,9.231782877E-1,2.400415342E0,-1.918995366E0,3.208861976E0
1.609479800E1,1.842127869E0,3.835941283E0,-1.057346159E0,4.384730495E0
1.610479300E1,2.899177575E0,5.495544807E0,3.466931105E-1,6.223057082E0
1.611478700E1,4.552983584E0,7.451833130E0,2.301730714E0,9.030915834E0
1.612478200E1,6.998726542E0,9.230807562E0,4.644538118E0,1.248045335E1
1.613477600E1,1.055427454E1,1.048970491E1,6.986470193E0,1.643889856E1
1.614477100E1,1.555774867E1,1.143146331E1,9.830516710E0,2.166473992E1
1.615476500E1,2.055055163E1,1.277876470E1,1.329389037E1,2.761067766E1
1.616476000E1,2.393291328E1,1.478371180E1,1.642668350E1,3.257573336E1
1.617475500E1,2.613917066E1,1.603574685E1,1.856953952E1,3.585009369E1
1.618474900E1,2.772356028E1,1.617032988E1,1.979802667E1,3.770990881E1
1.619474400E1,2.827678874E1,1.514147486E1,2.081917505E1,3.823975800E1
1.620473800E1,2.662626009E1,1.333637975E1,2.199181076E1,3.701967709E1
1.621473300E1,2.283457931E1,1.130446880E1,2.180033082E1,3.353302031E1
1.622472700E1,1.793631647E1,9.452415866E0,1.936784467E1,2.803877710E1
1.623472200E1,1.316786065E1,8.252516343E0,1.534185777E1,2.183733454E1
1.624471600E1,9.742679252E0,7.230404336E0,1.121912986E1,1.652475176E1
1.625471100E1,7.262628341E0,6.276601256E0,7.616084341E0,1.225341726E1
1.626470500E1,5.237066885E0,5.393695666E0,4.726500878E0,8.880238344E0
1.627470000E1,3.708231077E0,4.051735116E0,2.316700755E0,5.961093654E0
1.628469400E1,2.527881719E0,2.306960464E0,4.121333939E-1,3.447043154E0
1.629468900E1,1.351578051E0,1.743551999E-1,-9.850944543E-1,1.681539190E0
1.630468300E1,-1.518369877E-1,-2.113422303E0,-1.994652489E0,2.910025233E0
1.631467800E1,-1.818432612E0,-4.259774956E0,-2.786083653E0,5.405057073E0
1.632467200E1,-3.360358583E0,-6.234750980E0,-3.549079807E0,7.922127054E0
1.633466700E1,-4.832674035E0,-8.062509901E0,-4.177306995E0,1.028633550E1
1.634466100E1,-6.220975524E0,-9.666393553E0,-4.662994854E0,1.240496763E1
1.635465600E1,-7.357852002E0,-1.094179993E1,-5.074972712E0,1.412856397E1
1.636465100E1,-8.321819882E0,-1.188688539E1,-5.580366856E0,1.554642160E1
1.637464500E1,-9.288411992E0,-1.259069018E1,-6.110835031E0,1.679709443E1
1.638464000E1,-1.028446647E1,-1.314827950E1,-6.542848958E0,1.792920458E1
1.639463400E1,-1.125906166E1,-1.338325804E1,-6.838578322E0,1.877882368E1
1.640462900E1,-1.200512428E1,-1.340161713E1,-7.348999318E0,1.943538375E1
1.641462300E1,-1.260444049E1,-1.314742113E1,-7.885318217E0,1.984703620E1
1.642461800E1,-1.301465659E1,-1.275815327E1,-8.282232478E0,2.001866968E1
1.643461200E1,-1.310667188E1,-1.229913164E1,-8.648686838E0,1.994625957E1
1.644460637E1,-1.281117231E1,-1.180134180E1,-8.845930379E0,1.953582065E1
1.645460037E1,-1.221891719E1,-1.125360270E1,-8.757640346E0,1.877875863E1
1.646459537E1,-1.142603826E1,-1.070977656E1,-8.375868620E0,1.775975336E1
1.647458937E1,-1.067140479E1,-1.010129893E1,-7.886978241E0,1.667691656E1
1.648458437E1,-9.780594937E0,-9.408641270E0,-7.275573492E0,1.539858882E1
1.649457838E1,-8.881520042E0,-8.653926528E0,-6.700248402E0,1.409486329E1
1.650457337E1,-8.058247865E0,-7.964735684E0,-6.187125993E0,1.290941134E1
1.651456737E1,-7.310445117E0,-7.285165265E0,-5.608383790E0,1.174607209E1
1.652456237E1,-6.560186538E0,-6.628025934E0,-5.087493939E0,1.062305840E1
1.653455637E1,-5.922145967E0,-5.906112902E0,-4.604706300E0,9.547633349E0
1.654455137E1,-5.380798463E0,-5.319892695E0,-4.188091600E0,8.648373352E0
1.655454637E1,-4.826662513E0,-4.868203472E0,-3.859526027E0,7.867147972E0
1.656454038E1,-4.522481584E0,-4.306771367E0,-3.594992144E0,7.205906452E0
1.657453537E1,-4.165592099E0,-3.836896718E0,-3.329756595E0,6.569719396E0
1.658452937E1,-3.734852280E0,-3.186043729E0,-2.769099246E0,5.636302585E0
1.659452437E1,-3.375516320E0,-2.451521761E0,-2.166816738E0,4.700974808E0
1.660451837E1,-3.081660989E0,-1.638794453E0,-1.346123768E0,3.740899746E0
1.661451337E1,-2.539835767E0,-4.408280200E-1,-3.370984143E-1,2.599755836E0
1.662450737E1,-1.850963012E0,9.682357621E-1,5.907401043E-1,2.170833580E0
