"Time (s)","Linear Acceleration x (m/s^2)","Linear Acceleration y (m/s^2)","Linear Acceleration z (m/s^2)","Absolute acceleration (m/s^2)"
4.209191678E-2,1.180688788E-1,-5.596060199E-1,-1.849687150E0,1.936089282E0
5.208491674E-2,6.499691829E-2,-5.431683272E-1,-1.842033144E0,1.921546912E0
6.207891670E-2,8.121344000E-2,-5.890859270E-1,-1.724416401E0,1.824069565E0
7.207291666E-2,7.322029620E-2,-6.589782804E-1,-1.538899451E0,1.675656620E0
8.206691663E-2,1.258465527E-1,-7.538476002E-1,-1.473259193E0,1.659703651E0
9.206091659E-2,1.998236248E-1,-8.959594989E-1,-1.498667684E0,1.757463437E0
1.020549166E-1,3.588414319E-1,-1.081284075E0,-1.666893248E0,2.019028362E0
1.120489168E-1,6.555427489E-1,-1.352173005E0,-1.820397862E0,2.360499207E0
1.220429167E-1,1.025979209E0,-1.722935886E0,-2.058021689E0,2.873429080E0
1.320369167E-1,1.299460941E0,-2.112320103E0,-2.320922445E0,3.396641864E0
1.420309166E-1,1.444274984E0,-2.238598619E0,-2.326322349E0,3.536810664E0
1.520249166E-1,1.264580545E0,-2.173486657E0,-2.222289857E0,3.355857627E0
1.620189166E-1,9.376060000E-1,-2.088016736E0,-2.920287777E0,3.710390761E0
1.720129168E-1,6.980185314E-1,-1.958095405E0,-3.241950127E0,3.851182690E0
1.820069167E-1,3.055807525E-1,-1.701845564E0,-2.599704239E0,3.122197952E0
1.920009167E-1,6.944431052E-2,-1.348787175E0,-2.317572575E0,2.682385505E0
2.019949167E-1,1.023914704E-1,-1.135161490E0,-2.235049067E0,2.508888190E0
2.119889166E-1,2.647793202E-1,-1.048164861E0,-1.953813196E0,2.232967459E0
2.219829166E-1,3.937365916E-1,-1.193526642E0,-1.924004091E0,2.298113594E0
2.319769168E-1,9.495525925E-1,-1.018264247E0,-1.089322243E0,1.767805179E0
2.419709167E-1,1.421107877E0,-5.718869269E-1,-5.339993083E-1,1.622269249E0
2.519649167E-1,1.488184504E0,-1.403083250E-1,2.968882817E-1,1.523982347E0
2.619589167E-1,1.271943944E0,6.920299593E-1,1.329862077E0,1.966031537E0
2.719529166E-1,8.427335373E-1,1.504535365E0,2.895639424E0,3.370245415E0
2.819469166E-1,7.780539036E-1,2.184819438E0,4.916474576E0,5.436039561E0
2.919409166E-1,1.067383782E0,2.865561932E0,6.930050994E0,7.574718483E0
3.019349168E-1,1.266804095E0,3.669623666E0,9.060610317E0,9.857260765E0
3.119289167E-1,1.344323703E0,4.653976986E0,1.138604213E1,1.237370856E1
3.219229167E-1,8.702108462E-1,5.911474798E0,1.346666624E1,1.473274926E1
3.319169166E-1,-6.052384217E-1,7.679243626E0,1.642518896E1,1.814177302E1
3.419109166E-1,-2.393113047E0,8.956269093E0,1.951943491E1,2.160902786E1
3.519049166E-1,-2.589520143E0,7.913558514E0,2.214002599E1,2.365398008E1
3.618989168E-1,-2.846218173E0,7.551182002E0,2.366909159E1,2.500694312E1
3.718929167E-1,-3.441106292E0,7.899389541E0,2.343067722E1,2.496473918E1
3.818869167E-1,-3.506909688E0,7.714756690E0,2.092965001E1,2.258021558E1
3.918809167E-1,-2.453985193E0,6.720901353E0,1.896180700E1,2.026678768E1
4.018749166E-1,-1.317566990E0,5.872109588E0,1.506174457E1,1.621955003E1
4.118689166E-1,-4.868321586E-1,4.827842481E0,1.061904882E1,1.167515595E1
4.218629166E-1,-6.427434862E-2,4.249191495E0,6.713612798E0,7.945587226E0
4.318569168E-1,1.699294424E-1,3.882642410E0,3.408550165E0,5.169332870E0
4.418509167E-1,3.696554187E-1,3.317009080E0,7.402738738E-1,3.418654673E0
4.518449167E-1,5.117152771E-1,2.533233676E0,-1.171750442E0,2.837626557E0
4.618389166E-1,3.949800020E-1,1.645141606E0,-2.748224101E0,3.227264448E0
4.718319166E-1,-3.280609578E-2,4.496824586E-1,-3.555940930E0,3.584411590E0
4.818259166E-1,-1.962998003E-1,-8.960700113E-1,-3.823625293E0,3.932122259E0
4.918199168E-1,7.937887609E-3,-2.348230696E0,-3.916930482E0,4.566902103E0
5.018139167E-1,3.172345456E-1,-3.754251003E0,-4.221545860E0,5.658311391E0
5.118079167E-1,3.533504578E-1,-5.258632586E0,-4.653711814E0,7.031010373E0
5.218019166E-1,2.140879074E-1,-6.683140619E0,-5.472203307E0,8.640324716E0
5.317959166E-1,-1.859648466E-2,-7.900955426E0,-6.157708651E0,1.001712625E1
5.417899166E-1,-2.930384749E-1,-8.734702889E0,-6.791825740E0,1.106841466E1
5.517839168E-1,-3.542617464E-1,-9.146867858E0,-7.594052033E0,1.189370923E1
5.617779167E-1,-4.853212380E-1,-9.681079420E0,-8.388158882E0,1.281873804E1
5.717719167E-1,-2.153237164E-1,-9.857053714E0,-8.369373533E0,1.293268284E1
5.817659167E-1,-5.355841596E-1,-9.988883868E0,-8.822670740E0,1.333807221E1
5.917599166E-1,-8.670757154E-1,-9.914899049E0,-9.186767503E0,1.354450961E1
6.017539166E-1,-1.145210807E0,-9.700867567E0,-9.291254908E0,1.348131140E1
6.117479166E-1,-1.173428885E0,-9.273104566E0,-9.542684596E0,1.335777799E1
6.217419168E-1,-9.689570162E-1,-8.888305151E0,-9.979204388E0,1.339870764E1
6.317359167E-1,-8.538142303E-1,-8.398970969E0,-1.032810541E1,1.333947051E1
6.417299167E-1,-5.161901513E-1,-8.114047844E0,-1.035716607E1,1.316719840E1
6.517239166E-1,-2.353662175E-1,-7.749845831E0,-9.969284002E0,1.262941531E1
6.617179166E-1,-2.471530348E-2,-7.425856290E0,-9.537701014E0,1.208766698E1
6.717119166E-1,2.419533983E-1,-7.153949652E0,-9.118898286E0,1.159274959E1
6.817059168E-1,3.840910612E-1,-6.879700035E0,-8.783854584E0,1.116395539E1
6.916999167E-1,3.439022344E-1,-6.615335137E0,-8.719770854E0,1.095058590E1
7.016939167E-1,2.791112843E-1,-6.491259559E0,-8.805199260E0,1.094284642E1
7.116879167E-1,4.407335874E-1,-6.295536879E0,-9.034613596E0,1.102053871E1
7.216819166E-1,6.970863390E-1,-6.199558343E0,-9.267305297E0,1.117154423E1
7.316759166E-1,7.757626721E-1,-5.937722949E0,-9.089994915E0,1.088514442E1
7.416699168E-1,9.464469901E-1,-5.485738442E0,-8.765434100E0,1.038373358E1
7.516639167E-1,9.860516435E-1,-5.259108549E0,-8.271474186E0,9.851284474E0
7.616579167E-1,1.188132878E0,-5.152175839E0,-7.989284635E0,9.580461606E0
7.716519167E-1,1.658424141E0,-5.166860536E0,-7.712849913E0,9.430528735E0
7.816459166E-1,2.159799933E0,-4.798511970E0,-7.671701887E0,9.302981389E0
7.916399166E-1,2.782046735E0,-4.190206245E0,-7.939852273E0,9.398875813E0
8.016339166E-1,3.001580447E0,-3.424384132E0,-7.550432974E0,8.817308544E0
8.116279168E-1,2.572339562E0,-2.353349057E0,-6.896529492E0,7.727697046E0
8.216219167E-1,2.046354740E0,-1.722085701E0,-5.769098021E0,6.358902331E0
8.316159167E-1,1.901840512E0,-1.995755859E0,-3.400963987E0,4.377966974E0
8.416099166E-1,1.566966964E0,-8.121267986E-1,-1.208807171E0,2.139193815E0
8.516039166E-1,1.053342278E0,5.497414747E-1,3.669361711E-1,1.243538418E0
8.615979166E-1,9.616395181E-1,5.316130596E-1,3.550734569E0,3.716864133E0
8.715888751E-1,9.630171221E-1,8.161789191E-1,6.600205466E0,6.719840936E0
8.815828750E-1,-1.183577897E0,1.561423511E0,1.006536896E1,1.025429433E1
8.915768750E-1,-5.565247126E0,2.260753134E0,1.345588397E1,1.473579973E1
9.015708750E-1,-1.219618673E1,5.251300178E0,1.514722618E1,2.014352465E1
9.115648749E-1,-1.232151595E1,9.077326922E0,1.512282458E1,2.151551632E1
9.215588749E-1,-9.122526484E0,7.862271416E0,1.880667101E1,2.233218923E1
9.315528751E-1,-9.515833597E0,8.048621010E0,1.911444740E1,2.281870918E1
9.415468751E-1,-1.012204953E1,8.491831770E0,2.193986878E1,2.561103152E1
9.515408750E-1,-1.182891843E1,9.364009473E0,2.508988781E1,2.927644881E1
9.615348750E-1,-1.265773436E1,9.271564994E0,2.729174574E1,3.148046286E1
9.715288749E-1,-1.332472391E1,7.815144027E0,2.916758398E1,3.300564646E1
9.815228749E-1,-1.335244906E1,7.174630669E0,2.952830573E1,3.319162636E1
9.915168751E-1,-1.286634547E1,6.616776475E0,2.820770272E1,3.170172029E1
1.001510875E0,-1.179054784E1,7.113431956E0,2.155053075E1,2.557427043E1
1.011504875E0,-6.640734857E0,9.883250409E0,8.324002063E0,1.452814539E1
1.021498875E0,-2.635625146E0,4.990979213E0,7.777765117E0,9.609891968E0
1.031492875E0,-4.715467767E0,6.411260294E0,6.127519476E0,1.004422171E1
1.041486875E0,-7.390035077E0,7.697282871E0,4.418239177E0,1.154909605E1
1.051480875E0,-7.583283216E0,6.249788264E0,3.888066287E0,1.056802238E1
1.061474875E0,-5.871493877E0,4.253942358E0,2.815791017E0,7.778119630E0
1.071468875E0,-4.473132253E0,2.470544215E0,2.045492860E0,5.504229457E0
1.081462875E0,-3.593261953E0,1.141028586E-1,9.020739323E-1,3.706519702E0
1.091456875E0,-2.791140617E0,-2.154705692E0,-2.007775980E-1,3.531789095E0
1.101450875E0,-1.426122741E0,-3.753839943E0,-7.779422218E-1,4.090273156E0
1.111444875E0,5.056572694E-1,-4.549978116E0,-2.019999585E0,5.003837372E0
1.121438875E0,2.419288400E0,-5.067187144E0,-4.050272142E0,6.923441799E0
1.131432875E0,3.949606478E0,-6.747388655E0,-5.062980072E0,9.314526945E0
1.141426875E0,4.840585026E0,-7.545623054E0,-5.524879704E0,1.053052641E1
1.151420875E0,5.133779329E0,-7.151401436E0,-6.199802756E0,1.076734818E1
1.161414875E0,4.407532049E0,-6.146754477E0,-7.100284492E0,1.037414908E1
1.171408875E0,3.712993926E0,-5.013233131E0,-7.592087368E0,9.826424626E0
1.181402875E0,3.489349329E0,-4.771635536E0,-6.951564070E0,9.125146982E0
1.191396875E0,3.670565068E0,-5.030423945E0,-6.316151823E0,8.869723041E0
1.201390875E0,3.972901200E0,-5.182771980E0,-5.910105965E0,8.807634294E0
1.211384875E0,4.261289384E0,-5.100093520E0,-5.875292813E0,8.870659883E0
1.221378875E0,4.591280508E0,-4.992135792E0,-5.965119494E0,9.032382136E0
1.231372875E0,4.969288382E0,-4.821729510E0,-6.225991850E0,9.311599058E0
1.241366875E0,5.319113261E0,-4.634156679E0,-6.416293577E0,9.536099689E0
1.251360875E0,5.458282841E0,-4.783510939E0,-6.643488895E0,9.839246575E0
1.261354875E0,5.557534064E0,-5.229391830E0,-6.573094851E0,1.007165824E1
1.271348875E0,5.975181967E0,-5.713874577E0,-6.407188877E0,1.045959997E1
1.281342875E0,6.243935786E0,-5.863581424E0,-6.142567286E0,1.054037258E1
1.291336875E0,6.404122598E0,-5.916261329E0,-5.756128896E0,1.044738983E1
1.301330875E0,6.530495546E0,-5.870604515E0,-5.135278555E0,1.017263266E1
1.311324875E0,6.663868781E0,-5.914803033E0,-4.389798905E0,9.932893661E0
1.321318875E0,6.922116323E0,-6.130617916E0,-3.484806628E0,9.881500273E0
1.331312875E0,7.352352111E0,-6.254643207E0,-2.973079948E0,1.010033898E1
1.341306875E0,7.726553448E0,-6.053229432E0,-3.066117920E0,1.028310721E1
1.351300875E0,8.228903532E0,-5.861177634E0,-3.210667523E0,1.060078500E1
1.361294875E0,9.117226567E0,-5.802392067E0,-3.289888524E0,1.129667829E1
1.371288875E0,9.089575084E0,-5.764233722E0,-3.840534271E0,1.142788122E1
1.381282875E0,8.304924352E0,-5.405957277E0,-4.648890785E0,1.094569907E1
1.391276875E0,7.953984994E0,-5.343247059E0,-4.493767077E0,1.058348284E1
1.401270875E0,7.411327128E0,-5.275014730E0,-4.332978587E0,1.007612295E1
1.411264875E0,6.411192466E0,-4.925920753E0,-4.095535146E0,9.063194373E0
1.421258875E0,4.633053601E0,-4.170601408E0,-3.176047913E0,6.996169104E0
1.431252875E0,2.544564410E0,-3.198045723E0,-1.481595569E0,4.347117426E0
1.441246875E0,1.362570816E0,-2.430207490E0,-1.112427515E0,3.000000442E0
1.451240875E0,9.395569235E-1,-2.577095979E0,-1.596412665E0,3.173755551E0
1.461234875E0,1.017614329E-1,-3.220785545E0,-1.061103288E0,3.392602998E0
1.471228875E0,-1.399928677E0,-3.537043313E0,-1.605952397E-1,3.807396293E0
1.481222875E0,-2.670035133E0,-2.756485632E0,5.504217982E-1,3.876888547E0
1.491216875E0,-3.385892204E0,-1.037515912E0,1.121674302E0,3.714681484E0
1.501210875E0,-3.453073204E0,8.244626695E-1,1.396716802E0,3.815006038E0
1.511204875E0,-3.123848650E0,2.557889630E0,2.814060533E0,4.921398829E0
1.521198875E0,-2.992459960E0,4.163681813E0,8.873559058E-1,5.203697086E0
1.531192875E0,-7.468710533E0,7.518748666E0,-2.116587109E0,1.080708839E1
1.541186875E0,-1.123831574E1,1.136540614E1,-1.838981775E0,1.608894190E1
1.551180875E0,-1.109105244E1,1.454959630E1,-1.419384118E0,1.834984600E1
1.561174875E0,-3.651632953E-1,1.122766211E1,-3.592471702E0,1.179404908E1
1.571169875E0,-6.569171369E-2,1.299400773E1,6.916138129E0,1.472010594E1
1.581163875E0,-1.826527966E1,2.536453387E1,1.584715894E0,3.129682642E1
1.591157875E0,-1.513286191E1,2.755074933E1,-9.691292167E-2,3.143336906E1
1.601151875E0,-9.982334987E0,1.420670154E1,2.556299480E0,1.755027201E1
1.611145875E0,-9.321832337E0,7.164034345E0,2.925705222E0,1.211526712E1
1.621139875E0,-1.064830595E1,7.437614456E0,8.187135701E0,1.535362236E1
1.631133875E0,-1.085914485E1,5.084727037E0,1.214146848E1,1.706431167E1
1.641127875E0,-9.998607788E0,3.450290514E0,1.171775936E1,1.578551699E1
1.651121875E0,-7.092057459E0,5.304967092E0,6.007988355E0,1.070214366E1
1.661115875E0,-5.510652258E0,5.316872608E0,5.226457697E0,9.271045394E0
1.671109875E0,-3.524227971E0,4.357074378E0,2.552480371E0,6.157875930E0
1.681103875E0,-1.236111329E0,2.115048999E-1,-9.834949484E-1,1.593727660E0
1.691097875E0,1.950268030E0,-2.401802886E0,-3.375524798E0,4.578904908E0
1.701091875E0,9.160084904E0,1.798325792E0,7.995514843E-1,9.369120219E0
1.711085875E0,1.284345479E1,3.487950675E0,6.807234322E0,1.494853070E1
1.721079875E0,1.255287858E1,2.964658204E0,4.335824427E0,1.360747340E1
1.731073875E0,1.214110946E1,-2.219024187E-1,1.423197379E0,1.222625333E1
1.741067875E0,1.126896334E1,-3.153233832E0,2.633363736E-1,1.170477528E1
1.751061875E0,1.099557911E1,-4.387136668E0,-1.638911544E0,1.195139151E1
1.761055875E0,1.258528385E1,-4.527026040E0,-2.421357876E0,1.359214141E1
1.771049875E0,1.414097299E1,-2.870716837E0,-2.914014592E0,1.472072055E1
1.781043875E0,1.431476043E1,-1.593843398E0,-4.576917408E0,1.511293737E1
1.791037875E0,1.449358465E1,-2.883809338E0,-5.355257825E0,1.571811499E1
1.801031875E0,1.315998328E1,-4.093166439E0,-5.427889599E0,1.481219623E1
1.811025875E0,1.172251431E1,-4.736315430E0,-5.750441895E0,1.388947831E1
1.821019875E0,1.131690700E1,-4.994522041E0,-3.522015384E0,1.286165723E1
1.831013875E0,1.072328831E1,-4.631831241E0,-2.434130095E0,1.193179626E1
1.841007875E0,1.026980282E1,-4.670666401E0,-2.925029869E0,1.165503215E1
1.851001875E0,9.794524759E0,-5.398132533E0,-3.445945155E0,1.170243941E1
1.860995875E0,9.842137467E0,-6.277071372E0,-3.943164600E0,1.232143831E1
1.870993000E0,1.047193873E1,-6.055374776E0,-4.542258037E0,1.292134561E1
1.880987000E0,9.571133054E0,-6.515706183E0,-3.650633956E0,1.214035186E1
1.890981000E0,8.157244735E0,-8.650218809E0,-3.157082762E0,1.230179250E1
1.900975000E0,8.237969640E0,-7.937170740E0,-3.593837319E0,1.199076686E1
1.910969000E0,8.321146867E0,-7.905350193E0,-4.244359941E0,1.223726433E1
1.920964000E0,8.464473233E0,-8.805827835E0,-5.645831113E0,1.345605142E1
1.930958000E0,8.500151773E0,-8.233830396E0,-6.389663018E0,1.344902735E1
1.940952000E0,8.275887079E0,-7.732537488E0,-6.769588194E0,1.319506602E1
1.950946000E0,7.842254058E0,-8.040885143E0,-6.668858210E0,1.306255918E1
1.960940000E0,7.233933131E0,-7.883668132E0,-6.150680882E0,1.234151073E1
1.970934000E0,6.307392694E0,-7.696956596E0,-5.423955007E0,1.133338570E1
1.980928000E0,4.955873700E0,-7.751307635E0,-5.000975028E0,1.047154265E1
1.990922000E0,3.811906888E0,-7.339767149E0,-4.706834353E0,9.516149723E0
2.000916000E0,2.790531630E0,-6.241689870E0,-4.678330346E0,8.284475484E0
2.010910000E0,1.972303846E0,-4.573281901E0,-4.462557564E0,6.687249795E0
2.020904000E0,1.200183113E0,-3.208714553E0,-3.906409587E0,5.195798731E0
2.030898000E0,-2.062120003E-1,-2.583413311E0,-1.739079464E0,3.121048719E0
2.040892000E0,-2.388375340E0,-1.487195739E0,1.960759104E0,3.429382480E0
2.050886000E0,-5.677482677E0,2.355381256E-1,7.045472692E0,9.051407250E0
2.060880000E0,-9.748352221E0,1.548750256E0,1.326742353E1,1.653643025E1
2.070874000E0,-1.296398461E1,2.050571459E0,1.977727373E1,2.373626543E1
2.080868000E0,-1.539463123E1,3.027057058E0,2.461659312E1,2.919134122E1
2.090862000E0,-1.810046770E1,5.668827043E0,2.848811179E1,3.422477238E1
2.100856000E0,-2.068227770E1,8.981125606E0,3.097480163E1,3.831260320E1
2.110850000E0,-2.186695634E1,1.216914803E1,3.268126942E1,4.116208588E1
2.120844000E0,-2.195813314E1,1.453167108E1,3.463225841E1,4.350542952E1
2.130838000E0,-2.085569442E1,1.558111999E1,3.472283412E1,4.339823152E1
2.140832000E0,-1.882492368E1,1.626867537E1,3.186503086E1,4.042805636E1
2.150826000E0,-1.887943143E1,1.582726087E1,3.054489563E1,3.924188791E1
2.160821000E0,-1.531021147E1,1.418019027E1,2.776027144E1,3.472913822E1
2.170815000E0,-9.847610461E0,1.371238612E1,2.332577349E1,2.879403886E1
2.180809000E0,-5.448417419E0,1.301128976E1,1.840608061E1,2.318971145E1
2.190803000E0,-1.730546038E0,1.146262663E1,1.386623923E1,1.807371542E1
2.200797000E0,6.800072068E-1,9.100581883E0,9.902100663E0,1.346605354E1
2.210791000E0,1.952864486E0,6.017596500E0,6.247412540E0,8.891305348E0
2.220785000E0,2.412447450E0,2.786405250E0,2.605250908E0,4.513456459E0
2.230779000E0,2.714087764E0,-6.571826005E-1,-1.020739666E0,2.973225660E0
2.240773000E0,3.014469464E0,-4.075572460E0,-4.332751130E0,6.668586761E0
2.250767000E0,3.133668756E0,-7.216499657E0,-6.556774687E0,1.024153511E1
2.260761000E0,3.249022334E0,-1.022135162E1,-7.424744734E0,1.304450112E1
2.270755000E0,3.344613200E0,-1.256626285E1,-8.160870008E0,1.535243299E1
2.280749000E0,3.213156683E0,-1.450784601E1,-9.063246242E0,1.740529817E1
2.290743000E0,3.257692878E0,-1.533509488E1,-1.020635468E1,1.870688039E1
2.300737000E0,3.879887202E0,-1.533335709E1,-1.167301763E1,1.965768819E1
2.310731000E0,4.848775513E0,-1.505108626E1,-1.333157450E1,2.068276336E1
2.320725000E0,5.988280315E0,-1.427160330E1,-1.503955672E1,2.158069573E1
2.330719000E0,6.763840381E0,-1.342409032E1,-1.608631942E1,2.201648042E1
2.340713000E0,7.004190180E0,-1.255415210E1,-1.616148538E1,2.163004911E1
2.350708000E0,6.565261921E0,-1.170326762E1,-1.560742310E1,2.058302196E1
2.360702000E0,5.682954501E0,-1.134224298E1,-1.464537136E1,1.937599933E1
2.370696000E0,4.801544921E0,-1.123877650E1,-1.362220100E1,1.830107349E1
2.380690000E0,4.070004156E0,-1.120739449E1,-1.271593637E1,1.743174297E1
2.390684000E0,3.482054051E0,-1.107617011E1,-1.190421888E1,1.662879045E1
2.400678000E0,3.217642082E0,-1.087254550E1,-1.097706916E1,1.578168285E1
2.410672000E0,3.151493408E0,-1.031161392E1,-1.001042852E1,1.471291852E1
2.420666000E0,3.176006106E0,-9.717363732E0,-9.245089971E0,1.378353588E1
2.430660000E0,3.117337483E0,-9.223900831E0,-8.600601676E0,1.299109267E1
2.440654000E0,2.860050931E0,-8.839328873E0,-8.139267470E0,1.235157080E1
2.450648000E0,2.503261433E0,-8.644095020E0,-7.802961938E0,1.191104158E1
2.460642000E0,2.102909740E0,-8.497259740E0,-7.580359608E0,1.157961589E1
2.470636000E0,1.758687079E0,-8.252506987E0,-7.431211170E0,1.124365382E1
2.480630000E0,1.512593413E0,-7.889188489E0,-7.272081535E0,1.083560814E1
2.490624000E0,1.593215699E0,-7.423280007E0,-6.868221951E0,1.023796343E1
2.500618000E0,1.913348125E0,-6.558802502E0,-6.348602116E0,9.326496669E0
2.510613000E0,2.019156708E0,-5.582711590E0,-5.946590252E0,8.402713736E0
2.520607000E0,1.993732722E0,-4.764227114E0,-5.586426326E0,7.607955655E0
2.530601000E0,1.890816757E0,-4.025630221E0,-5.409839244E0,7.003373996E0
2.540595000E0,1.829987880E0,-3.629904699E0,-5.512394729E0,6.849201370E0
2.550589000E0,1.710798821E0,-3.257808653E0,-5.471647822E0,6.593866825E0
2.560583000E0,1.453919820E0,-2.026882050E0,-4.793377238E0,5.403572802E0
2.570577000E0,1.463791382E0,-8.052495959E-1,-3.287874743E0,3.687984876E0
2.580571000E0,1.262272064E0,1.150059026E0,-8.503336751E-1,1.907625196E0
2.590565000E0,6.384314570E-1,2.710859808E0,2.319681666E0,3.624538406E0
2.600559000E0,-5.354295373E-1,3.501018618E0,7.236367911E0,8.056602056E0
2.610553000E0,-2.949923513E0,4.778559809E0,1.416531495E1,1.523787486E1
2.620547000E0,-6.383612319E0,6.416201191E0,2.214356238E1,2.392186236E1
2.630541000E0,-1.050144261E1,7.588192538E0,3.050230918E1,3.313988275E1
2.640535000E0,-1.441733813E1,8.377354982E0,3.732426504E1,4.087958508E1
2.650529000E0,-1.777801363E1,9.895257082E0,4.149768013E1,4.621721906E1
2.660524000E0,-1.953476163E1,1.143095460E1,4.356709395E1,4.909547138E1
2.670518000E0,-1.979910957E1,1.164616137E1,4.339795973E1,4.910214581E1
2.680512000E0,-1.956810713E1,1.093844245E1,4.011827518E1,4.595689658E1
2.690506000E0,-1.935458670E1,9.918665825E0,3.403656045E1,4.039142737E1
2.700500000E0,-1.726195241E1,9.076211858E0,2.649023983E1,3.289506694E1
2.710494000E0,-1.292988950E1,8.213435892E0,1.963218560E1,2.490111008E1
2.720488000E0,-7.853940888E0,7.638971513E0,1.447796089E1,1.815625581E1
2.730482000E0,-2.580649332E0,6.918191671E0,1.066942142E1,1.297527188E1
2.740476000E0,1.733162374E0,5.777177703E0,7.413687649E0,9.557321727E0
2.750470000E0,4.315267956E0,3.998996739E0,3.940464356E0,7.081014884E0
2.760464000E0,5.750491596E0,1.356058772E0,6.227635503E-1,5.940949708E0
2.770458000E0,6.379387121E0,-1.546334186E0,-2.181548797E0,6.917144253E0
2.780452000E0,6.499629849E0,-4.238544300E0,-4.715491156E0,9.079994647E0
2.790447000E0,6.037602164E0,-6.738909023E0,-7.021954021E0,1.145309447E1
2.800441000E0,5.190403181E0,-9.200741179E0,-8.966411088E0,1.385606189E1
2.810435000E0,4.582921913E0,-1.113757523E1,-1.084729957E1,1.620841334E1
2.820429000E0,4.358115183E0,-1.234581464E1,-1.271215205E1,1.824859219E1
2.830423000E0,4.504781770E0,-1.272790445E1,-1.442443080E1,1.975744960E1
2.840417000E0,4.760079684E0,-1.241657179E1,-1.594693232E1,2.076377288E1
2.850411000E0,4.870026926E0,-1.179454967E1,-1.729220357E1,2.149066933E1
2.860405000E0,4.959087330E0,-1.124044647E1,-1.811553480E1,2.188864512E1
2.870395167E0,5.015921096E0,-1.066382914E1,-1.831563938E1,2.177933338E1
2.880389167E0,4.895659658E0,-1.021568684E1,-1.819440789E1,2.143278376E1
2.890383167E0,4.566598241E0,-9.987584617E0,-1.766304451E1,2.079876937E1
2.900377167E0,4.298137660E0,-9.736471263E0,-1.678217200E1,1.987244718E1
2.910372167E0,4.195569019E0,-9.407984628E0,-1.564880970E1,1.873494646E1
2.920366167E0,4.240023646E0,-8.862263407E0,-1.417660592E1,1.724800478E1
2.930360167E0,4.154858365E0,-8.087137204E0,-1.252941604E1,1.548066221E1
2.940354167E0,3.892157584E0,-7.402400769E0,-1.094521821E1,1.377469526E1
2.950348167E0,3.629224376E0,-6.886588055E0,-9.540458561E0,1.231327390E1
2.960342167E0,3.342547964E0,-6.421464270E0,-8.329400797E0,1.103570333E1
2.970336167E0,3.148811583E0,-6.020761598E0,-7.188462843E0,9.891338769E0
2.980330167E0,2.676799485E0,-5.346861223E0,-6.473197510E0,8.812290646E0
2.990324167E0,2.080458333E0,-5.058670675E0,-6.137718775E0,8.221316660E0
3.000318167E0,1.650782415E0,-4.881602367E0,-6.108772134E0,7.992009836E0
3.010312167E0,1.297082147E0,-4.901924949E0,-6.078598162E0,7.915847770E0
3.020306167E0,9.592811899E-1,-4.693355059E0,-5.872777925E0,7.578741497E0
3.030301167E0,9.244231600E-1,-4.574004325E0,-5.702250313E0,7.368292364E0
3.040295167E0,1.019359284E0,-4.425923004E0,-5.542672196E0,7.165828832E0
3.050289167E0,1.057808820E0,-4.144652342E0,-5.278293849E0,6.793930268E0
3.060283167E0,1.002963545E0,-3.873517830E0,-4.887254870E0,6.316275518E0
3.070277167E0,9.874222308E-1,-3.359487932E0,-4.465556016E0,5.674711654E0
3.080271167E0,1.064773293E0,-2.702641839E0,-3.963490691E0,4.913987539E0
3.090265167E0,1.269167686E0,-1.781839860E0,-3.514643215E0,4.139861934E0
3.100259167E0,1.340437497E0,-8.375572166E-1,-2.827932760E0,3.239672587E0
3.110253167E0,1.188397611E0,2.864931017E-2,-1.797082674E0,2.154673015E0
3.120247167E0,7.508785303E-1,1.009044942E0,-4.696711653E-1,1.342602423E0
3.130241167E0,1.270708135E-1,1.952835834E0,1.668655014E0,2.571793993E0
3.140236167E0,-5.191117126E-1,2.809819840E0,4.767550086E0,5.558245976E0
3.150230167E0,-1.325107998E0,3.251341048E0,9.170662517E0,9.819785171E0
3.160224167E0,-2.179131851E0,3.178442933E0,1.470590290E1,1.520245688E1
3.170218167E0,-2.720635183E0,3.363520465E0,2.038397381E1,2.083798248E1
3.180212167E0,-3.036035165E0,3.841572737E0,2.508942939E1,2.556275919E1
3.190206167E0,-3.681042693E0,5.431093873E0,3.050633675E1,3.120390100E1
3.200200167E0,-4.595220654E0,6.547548366E0,3.656067013E1,3.742551326E1
3.210194167E0,-6.529724298E0,6.480891861E0,4.142709254E1,4.243634357E1
3.220188167E0,-9.903254904E0,6.653281227E0,4.275961686E1,4.439285351E1
3.230182167E0,-1.318619518E1,6.269010985E0,3.927878809E1,4.190464695E1
3.240176167E0,-1.419489485E1,5.393913183E0,3.253424937E1,3.590357532E1
3.250171167E0,-1.325222077E1,4.942412825E0,2.530848948E1,2.899255835E1
3.260165167E0,-1.130203285E1,4.613262531E0,1.919860286E1,2.275092283E1
3.270159167E0,-8.690000925E0,3.683626870E0,1.405364249E1,1.692897192E1
3.280153167E0,-5.848611968E0,2.708805097E0,9.705711401E0,1.165095364E1
3.290147167E0,-3.327451038E0,1.906348570E0,5.869328653E0,7.011070825E0
3.300141167E0,-1.428382252E0,8.685831276E-1,2.396618745E0,2.922070142E0
3.310135167E0,-1.586994262E-1,-2.368683672E-1,-9.685883492E-1,1.009680901E0
3.320129167E0,6.712996794E-1,-1.420954095E0,-3.860306046E0,4.167939127E0
3.330123167E0,1.587827198E0,-2.220897928E0,-6.160207166E0,6.738080969E0
3.340117167E0,2.591356754E0,-3.723879395E0,-8.295719081E0,9.455229381E0
3.350112167E0,2.875075059E0,-4.987575549E0,-1.012218518E1,1.164476704E1
3.360106167E0,3.198016195E0,-5.783877443E0,-1.151616841E1,1.327790197E1
3.370100167E0,3.476820208E0,-6.191291549E0,-1.273005740E1,1.457651300E1
3.380094167E0,3.676033968E0,-6.270783277E0,-1.388752777E1,1.567480067E1
3.390088167E0,3.711902543E0,-6.001079285E0,-1.484609457E1,1.643769136E1
3.400082167E0,3.751052576E0,-5.848082210E0,-1.551896292E1,1.700319590E1
3.410076167E0,3.779685514E0,-5.353116574E0,-1.599717979E1,1.728732602E1
3.420070167E0,3.936529180E0,-4.925597987E0,-1.633248954E1,1.750736965E1
3.430064167E0,4.198946371E0,-4.598431068E0,-1.648568776E1,1.762255997E1
3.440059167E0,4.277414836E0,-4.388912760E0,-1.653871148E1,1.763768154E1
3.450053167E0,4.188864602E0,-4.602410683E0,-1.635558721E1,1.749954296E1
3.460047167E0,4.113870553E0,-4.842143601E0,-1.580551040E1,1.703480098E1
3.470041167E0,4.126601111E0,-5.125519552E0,-1.508463992E1,1.645740408E1
3.480035167E0,4.212605759E0,-5.447909296E0,-1.429852622E1,1.587052661E1
3.490029167E0,4.319225351E0,-5.496172214E0,-1.335245023E1,1.507154749E1
3.500023167E0,4.277507222E0,-5.133455393E0,-1.216937140E1,1.388319245E1
3.510017167E0,4.148053668E0,-4.720024210E0,-1.093676080E1,1.261339425E1
3.520011167E0,3.960793371E0,-4.230974202E0,-9.889374783E0,1.146249364E1
3.530006167E0,3.722499452E0,-3.795632625E0,-9.166153729E0,1.059632971E1
3.540000167E0,3.382930589E0,-3.480772049E0,-8.891724018E0,1.013028871E1
3.549994167E0,3.143085697E0,-3.222136837E0,-8.854800020E0,9.933208791E0
3.559988167E0,3.073971316E0,-2.792913786E0,-8.868292471E0,9.792664520E0
3.569982167E0,3.088685541E0,-2.325138580E0,-8.891342195E0,9.695473883E0
3.579976167E0,3.178757221E0,-2.066895277E0,-8.853161631E0,9.630940993E0
3.589970167E0,3.347834432E0,-1.933795254E0,-8.630690278E0,9.457080635E0
3.599964167E0,3.198950288E0,-1.849507055E0,-8.137667087E0,8.937314189E0
3.609958167E0,2.771828726E0,-1.595339262E0,-7.502319160E0,8.155546249E0
3.619953167E0,2.344866355E0,-1.138310946E0,-6.816092854E0,7.297483938E0
3.629947167E0,2.138402924E0,-7.342635939E-1,-6.084184007E0,6.490701435E0
3.639941167E0,2.137640301E0,-1.946954705E-1,-5.434931400E0,5.843448614E0
3.649935167E0,2.181671589E0,2.234924959E-1,-4.551651589E0,5.052442182E0
3.659929167E0,2.277468716E0,4.998501802E-1,-2.956489059E0,3.765307625E0
3.669923167E0,2.205256626E0,5.494512335E-1,-8.597395062E-2,2.274300983E0
3.679917167E0,1.391561604E0,-3.732657820E-2,4.457462885E0,4.669776476E0
3.689911167E0,-2.009038979E-1,-1.144233957E0,1.097224872E1,1.103357946E1
3.699905167E0,-2.340811603E0,-2.177357075E0,1.964713576E1,1.990553256E1
3.709900167E0,-4.925617867E0,-3.078989981E0,2.904902116E1,2.962410371E1
3.719894167E0,-7.393328814E0,-3.873546481E0,3.658627626E1,3.752627458E1
3.729888167E0,-9.101264838E0,-4.472549871E0,4.142784566E1,4.265094513E1
3.739882167E0,-1.032826562E1,-4.299701206E0,4.481609196E1,4.619136932E1
3.749876167E0,-1.140341538E1,-3.803269673E0,4.652287549E1,4.805081359E1
3.759870167E0,-1.224242417E1,-2.811448290E0,4.524257383E1,4.695393144E1
3.769864167E0,-1.257062955E1,-1.533171080E0,4.066336666E1,4.258967866E1
3.779858167E0,-1.161620959E1,-3.355841316E-2,3.439443110E1,3.630308998E1
3.789853167E0,-9.106847175E0,2.107394555E0,2.822828024E1,2.973569543E1
3.799847167E0,-5.648427277E0,3.915206431E0,2.225040738E1,2.328764052E1
3.809841167E0,-1.921123606E0,4.683945135E0,1.631776859E1,1.708507037E1
3.819835167E0,7.967842895E-1,4.503673138E0,1.077298847E1,1.170364121E1
3.829829167E0,2.006320170E0,3.775100420E0,6.074578201E0,7.428135979E0
3.839823167E0,2.716654984E0,1.787064493E0,1.282704867E0,3.495589447E0
3.849817167E0,3.063454514E0,-2.790544201E-1,-3.238325438E0,4.466472497E0
3.859811167E0,3.299953337E0,-2.116086587E0,-6.987760089E0,8.012259702E0
3.869806792E0,3.078291239E0,-3.987312540E0,-9.936712672E0,1.114059231E1
3.879800792E0,3.130334674E0,-5.426159992E0,-1.228255946E1,1.378780165E1
3.889794792E0,3.606268499E0,-6.605863232E0,-1.418807933E1,1.606064123E1
3.899788792E0,3.816535251E0,-6.960682803E0,-1.601393323E1,1.787353082E1
3.909782792E0,4.101615373E0,-6.914561720E0,-1.776354645E1,1.949815363E1
3.919776792E0,4.291114862E0,-6.613902569E0,-1.902255022E1,2.059161943E1
3.929770792E0,4.369137769E0,-6.102925503E0,-1.983518455E1,2.120777241E1
3.939764792E0,4.473865786E0,-5.552533525E0,-2.024524277E1,2.146429497E1
3.949759792E0,4.606103492E0,-4.929900953E0,-2.037649405E1,2.146442691E1
3.959753792E0,4.705125797E0,-4.370327092E0,-2.018164377E1,2.117868535E1
3.969747792E0,4.578200871E0,-3.826845354E0,-1.955389840E1,2.044406053E1
3.979741792E0,4.343966382E0,-3.873950524E0,-1.852781379E1,1.942054120E1
3.989735792E0,4.082016091E0,-4.040071382E0,-1.732400424E1,1.825119599E1
3.999729792E0,3.819729293E0,-4.025636653E0,-1.592063973E1,1.686009644E1
4.009723792E0,3.674212268E0,-4.162652704E0,-1.453515602E1,1.555950751E1
4.019718792E0,3.441986883E0,-4.135821293E0,-1.309804490E1,1.416019320E1
4.029712792E0,3.038541282E0,-3.999176833E0,-1.176176784E1,1.278926625E1
4.039706792E0,2.765693243E0,-3.917795286E0,-1.059521557E1,1.162999450E1
4.049700792E0,2.657624418E0,-3.556316321E0,-9.655890200E0,1.062763233E1
4.059694792E0,2.477116486E0,-3.027686511E0,-9.043959201E0,9.853739885E0
4.069688792E0,2.287252716E0,-2.525373264E0,-8.679216321E0,9.324045852E0
4.079682792E0,2.238942143E0,-2.206725739E0,-8.536961750E0,9.097374144E0
4.089676792E0,2.180803570E0,-1.853205419E0,-8.247038087E0,8.729485193E0
4.099671792E0,2.039394507E0,-1.617589818E0,-7.835491753E0,8.256552415E0
4.109665792E0,1.868333043E0,-1.338791067E0,-7.249120688E0,7.604786692E0
4.119659792E0,1.903209199E0,-1.052609330E0,-6.639692298E0,6.986823704E0
4.129653792E0,2.211923182E0,-7.115709885E-1,-5.994262016E0,6.428850174E0
4.139647792E0,2.583733739E0,-2.017605881E-1,-5.432586082E0,6.019084557E0
4.149641792E0,2.490977018E0,2.873989816E-1,-4.876342211E0,5.483272567E0
4.159635792E0,2.274748152E0,4.066096023E-1,-4.339516944E0,4.916423276E0
4.169630792E0,2.018454750E0,3.199860261E-1,-3.655301496E0,4.187813231E0
4.179624792E0,1.571428389E0,2.227235871E-1,-2.522911586E0,2.980616690E0
4.189618792E0,1.144099105E0,-1.668152153E-2,-1.019573146E0,1.532569880E0
4.199612792E0,5.778659973E-1,-1.088181451E-1,9.564068449E-1,1.122713032E0
4.209606792E0,1.394226180E-1,2.582225084E-1,3.237488701E0,3.250761545E0
4.219600792E0,-2.534240274E-1,8.181476766E-1,6.047129032E0,6.107483843E0
4.229594792E0,-6.286911651E-1,1.424728180E0,9.588311589E0,9.713949871E0
4.239589792E0,-1.274809079E0,1.756302145E0,1.419721034E1,1.436212091E1
4.249583792E0,-1.686566059E0,5.262062855E-1,1.979131172E1,1.987001303E1
4.259577792E0,-1.865348186E0,-1.682098494E0,2.652718019E1,2.664583022E1
4.269571792E0,-2.998404532E0,-3.603732854E0,3.276559095E1,3.309926389E1
4.279565792E0,-5.376186764E0,-3.875997342E0,3.799959038E1,3.857324991E1
4.289559792E0,-6.762010202E0,-4.160096008E0,4.328643695E1,4.400848560E1
4.299553792E0,-6.999176193E0,-2.932524245E0,4.662782600E1,4.724132008E1
4.309548792E0,-7.112994584E0,-4.140512075E-2,4.536062678E1,4.591495255E1
4.319542792E0,-6.933265209E0,1.851082441E0,3.892348554E1,3.957946941E1
4.329536792E0,-6.192858018E0,2.277545314E0,2.954323952E1,3.027113649E1
4.339530792E0,-6.063065618E0,2.892546540E0,2.075162334E1,2.181186515E1
4.349524792E0,-5.421331946E0,3.609959847E0,1.412292264E1,1.555247871E1
4.359518792E0,-3.412368104E0,3.098408876E0,9.147452579E0,1.024306020E1
4.369512792E0,-1.383157986E0,2.368473172E0,4.776831957E0,5.508258774E0
4.379507792E0,-1.269240484E-1,1.192130327E0,6.825712109E-1,1.379560759E0
4.389501792E0,1.798615229E-1,-5.453215644E-2,-2.987420830E0,2.993327101E0
4.399495792E0,4.060843031E-1,-1.530880434E0,-5.859406512E0,6.069690605E0
4.409489792E0,7.736728773E-1,-3.058694880E0,-8.270393620E0,8.851756590E0
4.419483792E0,8.151824804E-1,-4.205660144E0,-1.042952302E1,1.127506320E1
4.429477792E0,6.719414113E-1,-5.322836183E0,-1.235527192E1,1.346984909E1
4.439471792E0,5.775176494E-1,-6.135517298E0,-1.407732371E1,1.536714489E1
4.449466792E0,7.019405513E-1,-6.620460221E0,-1.547830956E1,1.684937035E1
4.459460792E0,7.742655656E-1,-6.730652754E0,-1.651350530E1,1.784928657E1
4.469454792E0,6.010830979E-1,-6.488103817E0,-1.715566991E1,1.835139783E1
4.479448792E0,6.625828696E-1,-6.010124928E0,-1.744706941E1,1.846512520E1
4.489442792E0,9.762597500E-1,-5.757588362E0,-1.741445598E1,1.836753070E1
4.499436792E0,1.370639828E0,-5.457821496E0,-1.708903037E1,1.799170442E1
4.509430792E0,1.731196833E0,-5.028906008E0,-1.657173187E1,1.740428785E1
4.519425792E0,1.998226892E0,-4.732006909E0,-1.580265929E1,1.661652313E1
4.529419792E0,2.196680222E0,-4.695324986E0,-1.493296783E1,1.580711893E1
4.539413792E0,2.278462596E0,-4.672187554E0,-1.386311447E1,1.480562971E1
4.549407792E0,2.225262289E0,-4.874921338E0,-1.257621481E1,1.367032660E1
4.559401792E0,2.098664223E0,-4.879407907E0,-1.128820535E1,1.247543960E1
4.569395792E0,1.917161095E0,-4.986529482E0,-1.021101842E1,1.152414336E1
4.579390792E0,1.695575010E0,-4.783418553E0,-9.392048042E0,1.067551564E1
4.589384792E0,1.476299599E0,-4.485007948E0,-8.784615891E0,9.973175681E0
4.599378792E0,1.388968364E0,-4.137745027E0,-8.432606492E0,9.495210333E0
4.609372792E0,1.296866385E0,-3.787381034E0,-8.293470826E0,9.209113739E0
4.619366792E0,1.161310750E0,-3.492292818E0,-8.386486579E0,9.158488353E0
4.629360792E0,1.113264910E0,-3.370062329E0,-8.632986479E0,9.334084552E0
4.639354792E0,1.197206514E0,-3.205313520E0,-8.823429708E0,9.463627741E0
4.649349792E0,1.212287726E0,-3.139064274E0,-8.878684727E0,9.494967537E0
4.659343792E0,9.814276654E-1,-3.093197545E0,-8.691048746E0,9.277143937E0
4.669337792E0,5.745363003E-1,-3.189360854E0,-8.352299078E0,8.958962803E0
4.679331792E0,1.159426485E-1,-3.187090965E0,-7.955574852E0,8.571007102E0
4.689325792E0,-2.137011141E-1,-3.153757743E0,-7.458218290E0,8.100424441E0
4.699319792E0,-2.467163940E-1,-3.052091619E0,-6.894659552E0,7.544034900E0
4.709314792E0,-1.814399605E-1,-2.577456753E0,-6.173643483E0,6.692538952E0
4.719308792E0,-3.598433523E-1,-1.834493013E0,-5.507367293E0,5.816007767E0
4.729302792E0,-4.494365101E-1,-1.073938365E0,-4.815078594E0,4.953818593E0
4.739296792E0,-3.758409689E-1,-1.079507545E0,-3.243210787E0,3.438751108E0
4.749290792E0,-3.629743170E-1,-9.642970777E-1,-1.256402922E-1,1.037981065E0
4.759284792E0,-2.903604501E-1,-5.482320160E-1,4.252715027E0,4.297726450E0
4.769279792E0,-3.594121201E-1,-9.715324223E-2,9.236288157E0,9.243788982E0
4.779273792E0,-5.793282763E-1,5.381082930E-1,1.391693926E1,1.393938235E1
4.789267792E0,-6.178236763E-1,8.579088892E-1,1.784509289E1,1.787638258E1
4.799261792E0,-7.492000870E-1,9.011788698E-1,2.092881736E1,2.096160348E1
4.809255792E0,-1.278087321E0,8.525385140E-1,2.289328068E1,2.294477346E1
4.819249792E0,-1.569226328E0,2.332362084E0,2.447008061E1,2.463102169E1
4.829243792E0,-4.971109059E-1,3.327242000E0,2.677461331E1,2.698513622E1
4.839238792E0,1.320500684E0,4.802796518E0,2.987117944E1,3.028362491E1
4.849232792E0,3.484206119E0,5.893985192E0,3.330087781E1,3.399745898E1
4.859226792E0,4.249017833E0,7.434340600E0,3.591438908E1,3.692109039E1
4.869220625E0,2.694916498E0,8.719020072E0,3.640569553E1,3.753210030E1
4.879214625E0,9.112527452E-1,8.742318302E0,3.397570965E1,3.509426388E1
4.889208625E0,2.863193298E-1,7.632997413E0,2.946300169E1,3.043703495E1
4.899203625E0,1.951759654E-1,6.470641692E0,2.396888769E1,2.482770377E1
4.909197625E0,8.943257868E-2,5.468013192E0,1.832129832E1,1.912007162E1
4.919191625E0,7.415526599E-2,4.428122726E0,1.310392135E1,1.383208316E1
4.929185625E0,2.456287388E-1,2.765438596E0,8.477711914E0,8.920738949E0
4.939179625E0,5.393623745E-1,7.422604653E-1,4.262913156E0,4.360537919E0
4.949173625E0,8.322352271E-1,-1.060996284E0,4.694518948E-1,1.427835309E0
4.959168625E0,1.302114407E0,-2.671534359E0,-2.991967624E0,4.217163505E0
4.969162625E0,1.648687065E0,-4.043342315E0,-6.244638036E0,7.619861568E0
4.979156625E0,1.871094975E0,-5.272999195E0,-9.407551349E0,1.094566304E1
4.989150625E0,2.146622794E0,-6.271562126E0,-1.233543466E1,1.400369341E1
4.999144625E0,2.577781565E0,-7.012267524E0,-1.494240757E1,1.670605871E1
5.009138625E0,2.911118758E0,-7.371904616E0,-1.715534715E1,1.889776510E1
5.019133625E0,3.163494234E0,-7.348979437E0,-1.916225423E1,2.076552869E1
5.029127625E0,3.475744028E0,-7.045673252E0,-2.100584157E1,2.242694112E1
5.039121625E0,3.784313293E0,-6.804437599E0,-2.251423141E1,2.382251066E1
5.049115625E0,4.135811060E0,-7.206849997E0,-2.357836853E1,2.499966165E1
5.059109625E0,4.433385513E0,-7.496611108E0,-2.384969805E1,2.539019855E1
5.069103625E0,4.629214320E0,-7.386713859E0,-2.309501897E1,2.468548295E1
5.079098625E0,4.607159792E0,-7.091297906E0,-2.155859757E1,2.315784007E1
5.089092625E0,4.492877716E0,-7.023357938E0,-1.967348565E1,2.136725402E1
5.099086625E0,4.214366356E0,-6.908116919E0,-1.760466474E1,1.937542732E1
5.109080625E0,3.833146314E0,-6.908551367E0,-1.535081687E1,1.726466540E1
5.119074625E0,3.308775616E0,-6.849242474E0,-1.314187446E1,1.518449811E1
5.129068625E0,2.823874792E0,-6.699540889E0,-1.126426568E1,1.340678180E1
5.139063625E0,2.380140414E0,-6.515202738E0,-9.844690361E0,1.204287604E1
5.149057625E0,1.863260876E0,-6.211280841E0,-8.628493479E0,1.079363935E1
5.159051625E0,1.569799647E0,-5.746428366E0,-7.612846738E0,9.666496022E0
5.169045625E0,1.458548476E0,-5.342834830E0,-6.906769136E0,8.853062045E0
5.179039625E0,1.258132528E0,-4.799364787E0,-6.162368882E0,7.911484693E0
5.189033625E0,1.208833118E0,-4.568420234E0,-5.570931205E0,7.305273125E0
5.199028625E0,1.167795166E0,-4.151441252E0,-5.078979809E0,6.662900713E0
5.209022625E0,1.195482682E0,-3.805880163E0,-4.550037172E0,6.051176822E0
5.219016625E0,1.315939418E0,-3.276376778E0,-3.990311869E0,5.328126327E0
5.229010625E0,1.111164517E0,-2.532959442E0,-3.626221538E0,4.560707485E0
5.239004625E0,8.711720554E-1,-2.276648936E0,-3.309050435E0,4.109973955E0
5.248999625E0,7.590974497E-1,-2.339988607E0,-2.458223839E0,3.477734904E0
5.258993625E0,3.098437382E-1,-2.074602492E0,-1.118011022E0,2.376957570E0
5.268987625E0,1.016246080E-3,-1.760286292E0,3.561194068E-1,1.795948188E0
5.278981625E0,-3.288108632E-3,-1.497280432E0,2.295284743E0,2.740472871E0
5.288975625E0,-1.187436475E-1,-1.112913419E0,4.867065604E0,4.994096908E0
5.298969625E0,-3.137598377E-1,-6.127846190E-1,8.326320484E0,8.354732971E0
5.308964625E0,-6.116468970E-1,-1.334061985E-1,1.282090909E1,1.283618398E1
5.318958625E0,-1.286171097E0,6.631911993E-2,1.817487235E1,1.822044509E1
5.328952625E0,-2.346448904E0,7.702946484E-2,2.333391749E1,2.345172620E1
5.338946625E0,-3.518707907E0,1.001408405E-1,2.742833436E1,2.765329744E1
5.348940625E0,-4.656106249E0,5.255965305E-1,2.993899311E1,3.030344676E1
5.358934625E0,-5.577856062E0,1.574504609E0,3.143893022E1,3.196870151E1
5.368929625E0,-5.838257133E0,2.714185412E0,3.364443915E1,3.425493154E1
5.378923625E0,-5.881234168E0,3.605430009E0,3.616654909E1,3.681857295E1
5.388917625E0,-6.425864300E0,3.918645178E0,3.623282845E1,3.700628824E1
5.398911625E0,-6.782657306E0,3.927796363E0,3.351523674E1,3.441951653E1
5.408905625E0,-6.415981336E0,4.613505190E0,2.927332269E1,3.032122471E1
5.418899625E0,-5.188810399E0,5.327040916E0,2.416262700E1,2.528109297E1
5.428894625E0,-3.624669102E0,5.410142130E0,1.860471520E1,1.971150151E1
5.438888625E0,-2.212133536E0,4.990009745E0,1.342419674E1,1.449147301E1
5.448882625E0,-8.729039276E-1,3.979590999E0,8.798089630E0,9.695642677E0
5.458876625E0,2.041204512E-1,2.598132800E0,4.684241881E0,5.360418007E0
5.468870625E0,8.285435875E-1,7.303739530E-1,9.964988637E-1,1.487595568E0
5.478865625E0,1.205933118E0,-1.542729670E0,-2.595793621E0,3.251527955E0
5.488859625E0,1.213079731E0,-3.456665148E0,-5.873302420E0,6.922122341E0
5.498853625E0,1.303313379E0,-4.932184875E0,-8.765392000E0,1.014185241E1
5.508847625E0,1.525465035E0,-6.233322505E0,-1.146434454E1,1.313820949E1
5.518841625E0,1.582706060E0,-7.033673011E0,-1.388831363E1,1.564809158E1
5.528835625E0,1.562857979E0,-7.449051610E0,-1.591195311E1,1.763862655E1
5.538830625E0,1.597672155E0,-7.678582306E0,-1.746373632E1,1.914406615E1
5.548824625E0,1.726043535E0,-7.782642279E0,-1.853880071E1,2.018008620E1
5.558818625E0,1.691958069E0,-7.515437973E0,-1.926699774E1,2.074998150E1
5.568812625E0,1.560372620E0,-7.216815991E0,-1.956066713E1,2.090781898E1
5.578806625E0,1.582844639E0,-7.040817724E0,-1.953004410E1,2.082069004E1
5.588801625E0,1.587621230E0,-6.955405691E0,-1.935174612E1,2.062494333E1
5.598795625E0,1.413020593E0,-6.846658005E0,-1.890710279E1,2.015817177E1
5.608789625E0,1.280564201E0,-6.684576695E0,-1.840236646E1,1.962066516E1
5.618783625E0,1.178569465E0,-6.679612994E0,-1.766061441E1,1.891833917E1
5.628777625E0,1.067543411E0,-6.613363456E0,-1.648157600E1,1.779096884E1
5.638772625E0,1.246299956E0,-6.478079935E0,-1.509275352E1,1.647149028E1
5.648766625E0,1.679644125E0,-6.147718098E0,-1.362475974E1,1.504159966E1
5.658760625E0,2.069806021E0,-5.651034551E0,-1.232896881E1,1.371939359E1
5.668754625E0,2.390820792E0,-5.335477279E0,-1.114027314E1,1.258129673E1
5.678748625E0,2.612627170E0,-5.124204513E0,-1.005046324E1,1.157994404E1
5.688742625E0,2.512447117E0,-4.998691106E0,-9.073356078E0,1.065950720E1
5.698737625E0,2.264282806E0,-4.685171296E0,-8.294586475E0,9.791729750E0
5.708731625E0,2.158845229E0,-4.684356487E0,-7.709895315E0,9.276114175E0
5.718725625E0,1.872938895E0,-4.398938688E0,-7.174587985E0,8.621674689E0
5.728719625E0,1.652580141E0,-4.289957698E0,-6.680931541E0,8.109846141E0
5.738713625E0,1.459802996E0,-4.121385979E0,-6.318033457E0,7.683384276E0
5.748708625E0,1.543775298E0,-3.575338775E0,-6.058877842E0,7.202519715E0
5.758702625E0,1.776170399E0,-2.855445079E0,-5.861380532E0,6.757523928E0
5.768696625E0,1.747706008E0,-1.966343633E0,-5.430876941E0,6.034518036E0
5.778690625E0,1.488740574E0,-1.142328714E0,-4.605030820E0,4.972682600E0
5.788684625E0,8.914694220E-1,-1.869457170E-1,-3.265212105E0,3.389878541E0
5.798679625E0,2.783397442E-1,5.440126652E-1,-1.196286528E0,1.343325817E0
5.808673625E0,-1.291357577E-3,7.595932936E-1,2.016561422E0,2.154879024E0
5.818667625E0,2.195337117E-2,4.635796823E-1,6.807321446E0,6.823123430E0
5.828661625E0,-4.034947175E-1,3.272525802E-2,1.313523202E1,1.314146868E1
5.838655625E0,-2.141370532E0,-1.575997842E-1,1.983111957E1,1.994702005E1
5.848650625E0,-4.297045693E0,-7.214733213E-1,2.515717055E1,2.553171274E1
5.858644625E0,-6.118755085E0,-1.661361928E0,2.866524033E1,2.935805324E1
5.868638625E0,-7.348979437E0,-1.706072809E0,3.024933758E1,3.117596201E1
5.878633667E0,-8.059527236E0,-7.892291021E-1,2.987329379E1,3.095145463E1
5.888627667E0,-8.157821270E0,1.197841961E-1,2.824343154E1,2.939822820E1
5.898622667E0,-7.809692084E0,6.252746370E-1,2.666895412E1,2.779595965E1
5.908616667E0,-7.564629428E0,9.811456103E-1,2.531487931E1,2.643916375E1
5.918610667E0,-7.519545057E0,1.149607182E0,2.373525167E1,2.492443231E1
5.928604667E0,-7.239969796E0,1.192064181E0,2.197949887E1,2.317189138E1
5.938598667E0,-6.627350580E0,1.691468218E0,2.011084803E1,2.124215264E1
5.948592667E0,-5.525562658E0,2.227345214E0,1.811424257E1,1.906878846E1
5.958587667E0,-4.326022447E0,2.113686451E0,1.582602126E1,1.654222142E1
5.968581667E0,-3.115331596E0,1.581735422E0,1.339171195E1,1.383998290E1
5.978575667E0,-1.892510695E0,1.047676034E0,1.087371027E1,1.108678478E1
5.988569667E0,-6.733054206E-1,6.214097737E-1,8.056876109E0,8.108806504E0
5.998563667E0,3.233386002E-1,-1.734428881E-1,4.624109700E0,4.638644285E0
6.008558667E0,1.084932007E0,-1.038926699E0,8.372253871E-1,1.719707096E0
6.018552667E0,2.087084690E0,-1.981171588E0,-3.029169365E0,4.178137193E0
6.028546667E0,3.064538003E0,-2.899437776E0,-6.464034923E0,7.718929982E0
6.038540667E0,3.636961412E0,-3.640881677E0,-9.422947653E0,1.073664054E1
6.048534667E0,3.728101670E0,-4.337615429E0,-1.182975693E1,1.313989340E1
6.058529667E0,3.803160623E0,-4.798368421E0,-1.390945015E1,1.519740681E1
6.068523667E0,3.819419098E0,-5.004027275E0,-1.565767174E1,1.687574992E1
6.078517667E0,3.707282073E0,-4.999572866E0,-1.706783304E1,1.816729462E1
6.088511667E0,3.694450943E0,-4.748056346E0,-1.810728321E1,1.908053228E1
6.098505667E0,3.682388430E0,-4.372892851E0,-1.877193855E1,1.962314586E1
6.108500667E0,3.773487757E0,-3.921203628E0,-1.907387474E1,1.983501311E1
6.118494667E0,3.866524267E0,-3.418385766E0,-1.902398980E1,1.971160975E1
6.128488667E0,3.782218820E0,-3.082742139E0,-1.880355679E1,1.942632817E1
6.138482667E0,3.622507972E0,-3.080862844E0,-1.833179056E1,1.893855394E1
6.148476667E0,3.279899434E0,-3.234614502E0,-1.752753996E1,1.812277927E1
6.158471667E0,2.807083928E0,-3.482633802E0,-1.650083088E1,1.709637032E1
6.168465667E0,2.301292173E0,-3.557220593E0,-1.511869060E1,1.570110090E1
6.178459667E0,1.948458170E0,-3.315793444E0,-1.344362470E1,1.398291888E1
6.188453667E0,1.793166647E0,-3.118967979E0,-1.194796775E1,1.247787406E1
6.198448667E0,1.757076171E0,-2.997386532E0,-1.053941676E1,1.109733970E1
6.208442667E0,1.592250470E0,-2.684432732E0,-9.129769430E0,9.648529965E0
6.218436667E0,1.210579901E0,-2.448037697E0,-7.827365293E0,8.290116989E0
6.228430667E0,9.220617619E-1,-2.469023354E0,-6.858140767E0,7.347133386E0
6.238424667E0,6.166359606E-1,-2.466672189E0,-6.127742840E0,6.634300559E0
6.248419667E0,3.543055274E-1,-2.456363255E0,-5.530355621E0,6.061690040E0
6.258413667E0,1.782188939E-1,-2.322218042E0,-4.939127274E0,5.460717612E0
6.268407667E0,1.801647010E-1,-1.868235395E0,-4.266840731E0,4.661404577E0
6.278401667E0,2.568463296E-1,-1.276266352E0,-3.754332279E0,3.973642749E0
6.288395667E0,1.490608394E-1,-6.124284504E-1,-3.302599787E0,3.362209555E0
6.298390667E0,-1.870394187E-1,4.879647642E-2,-2.799718775E0,2.806383805E0
6.308384667E0,-5.892875098E-1,4.094714490E-1,-1.999569998E0,2.124430939E0
6.318378667E0,-1.006625949E0,3.030008148E-1,-3.850338882E-1,1.119534006E0
6.328372667E0,-1.804277088E0,3.105792448E-2,2.970841050E0,3.475956983E0
6.338366667E0,-3.103997937E0,1.995406196E-1,7.465850660E0,8.087864102E0
6.348361667E0,-4.676294638E0,2.559131871E-1,1.208638420E1,1.296201783E1
6.358355667E0,-6.375570059E0,7.988977656E-2,1.649146598E1,1.768114040E1
6.368349667E0,-7.896874069E0,-1.890496914E-1,2.088073454E1,2.232490615E1
6.378343667E0,-8.198185769E0,-7.189379686E-1,2.471740146E1,2.605143099E1
6.388337667E0,-7.738393475E0,-7.376443809E-1,2.710748828E1,2.820004918E1
6.398332667E0,-7.224754756E0,1.040990035E-1,2.775852897E1,2.868351178E1
6.408326667E0,-6.923636599E0,8.987128066E-1,2.833965333E1,2.918698989E1
6.418320667E0,-6.100695959E0,2.294475050E0,2.972238651E1,3.042866029E1
6.428314667E0,-4.678365137E0,3.413492524E0,3.016058387E1,3.071155891E1
6.438309667E0,-3.344091044E0,4.226509853E0,2.792683522E1,2.844212467E1
6.448303667E0,-2.282527288E0,4.244994656E0,2.371855669E1,2.420330230E1
6.458297667E0,-7.039898542E-1,3.988480521E0,1.909216249E1,1.951702454E1
6.468291667E0,9.928789987E-1,4.032500407E0,1.523144480E1,1.578745638E1
6.478285667E0,2.413991115E0,3.663225350E0,1.193556463E1,1.271629962E1
6.488280667E0,3.667281271E0,2.687578242E0,8.950144134E0,1.003878024E1
6.498274667E0,4.494160595E0,1.489223554E0,6.175522193E0,7.781538447E0
6.508268667E0,4.746190208E0,8.798948586E-2,3.731373187E0,6.037980581E0
6.518262667E0,4.512314153E0,-1.427039000E0,1.406928379E0,4.937293468E0
6.528256667E0,3.940904067E0,-3.082729568E0,-8.544308192E-1,5.075824906E0
6.538251667E0,3.138728644E0,-4.667234378E0,-3.193795382E0,6.467999937E0
6.548245667E0,2.381002878E0,-6.192977886E0,-5.620710306E0,8.695661800E0
6.558239667E0,1.732981111E0,-7.471904867E0,-7.844209952E0,1.097106265E1
6.568233667E0,1.265604100E0,-8.264088567E0,-9.768449101E0,1.285766353E1
6.578228667E0,9.307985254E-1,-8.687253903E0,-1.157544748E1,1.450261186E1
6.588222667E0,7.253441781E-1,-8.875687444E0,-1.318171271E1,1.590790689E1
6.598216667E0,6.401993626E-1,-8.902391093E0,-1.440850650E1,1.694896699E1
6.608210667E0,7.642682156E-1,-8.811918295E0,-1.533009902E1,1.769875549E1
6.618204667E0,9.903598720E-1,-8.657829545E0,-1.613925309E1,1.834160068E1
6.628199667E0,1.224763930E0,-8.517744291E0,-1.690126925E1,1.896588824E1
6.638193667E0,1.523255372E0,-8.402792709E0,-1.745261842E1,1.942990278E1
6.648187667E0,1.959005962E0,-8.225565357E0,-1.779816665E1,1.970462803E1
6.658181667E0,2.365637419E0,-7.826837874E0,-1.779294158E1,1.958173642E1
6.668176667E0,2.490500177E0,-7.230733534E0,-1.731411893E1,1.892788454E1
6.678170667E0,2.496618412E0,-6.830242531E0,-1.630072746E1,1.784934263E1
6.688164667E0,2.379087038E0,-6.422697448E0,-1.473132543E1,1.624570855E1
6.698158667E0,2.014260981E0,-6.036919209E0,-1.304239695E1,1.451226236E1
6.708152667E0,1.690031850E0,-5.841174309E0,-1.138345767E1,1.290575970E1
6.718147667E0,1.467863967E0,-5.616148893E0,-9.875617454E0,1.145528582E1
6.728141667E0,1.122949580E0,-5.427107826E0,-8.604142165E0,1.023453846E1
6.738135667E0,7.834788041E-1,-5.277455943E0,-7.618872879E0,9.301215200E0
6.748129667E0,5.154203653E-1,-5.093182696E0,-6.971322981E0,8.649017992E0
6.758124667E0,2.501707828E-1,-4.899058644E0,-6.664575124E0,8.275259670E0
6.768118667E0,3.611357331E-2,-4.801047615E0,-6.473723760E0,8.059805315E0
6.778112667E0,-1.666706429E-1,-4.536880352E0,-6.385971086E0,7.835284880E0
6.788106667E0,-3.310755629E-1,-4.218447420E0,-6.344986197E0,7.626516866E0
6.798101667E0,-4.048629659E-1,-3.841805748E0,-6.247852836E0,7.345682438E0
6.808095667E0,-5.183866578E-1,-3.165220039E0,-5.868991853E0,6.688229063E0
6.818089667E0,-7.343146109E-1,-2.133532632E0,-5.550785208E0,5.991860801E0
6.828083667E0,-9.219540270E-1,-1.354796066E0,-5.121667991E0,5.377448709E0
6.838077667E0,-1.087666896E0,-8.928543350E-1,-4.037297171E0,4.275508927E0
6.848072667E0,-1.348431372E0,-7.246889976E-1,-1.348743321E0,2.040232794E0
6.858066667E0,-1.729484914E0,-6.599752307E-2,2.707245060E0,3.213199271E0
6.868060667E0,-2.686052704E0,7.353987578E-1,8.034074306E0,8.503060650E0
6.878057125E0,-3.771989408E0,1.619696131E0,1.342286825E1,1.403654914E1
6.888052125E0,-4.196250220E0,2.008623242E0,1.842516709E1,1.900341721E1
6.898046125E0,-3.839476802E0,1.794923882E0,2.285349388E1,2.324318215E1
6.908040125E0,-3.466914440E0,1.331400479E0,2.644917834E1,2.670863452E1
6.918034125E0,-4.538416708E0,2.414446905E0,3.053225394E1,3.096199785E1
6.928028125E0,-6.439714599E0,4.446808673E0,3.546087202E1,3.631414980E1
6.938023125E0,-7.759537591E0,4.952898052E0,3.881452618E1,3.989121539E1
6.948017125E0,-8.331742607E0,4.464477789E0,3.843106344E1,3.957645934E1
6.958011125E0,-8.622518794E0,3.761609139E0,3.475253330E1,3.600327908E1
6.968005125E0,-8.196569014E0,3.550242233E0,2.993642267E1,3.124063645E1
6.978000125E0,-6.860339320E0,3.722135755E0,2.499273983E1,2.618311659E1
6.987994125E0,-4.983259134E0,3.605832590E0,2.014078109E1,2.105910642E1
6.997988125E0,-2.964704397E0,3.091084362E0,1.528680974E1,1.587547879E1
7.007982125E0,-8.952981788E-1,2.174363447E0,1.053059799E1,1.078994482E1
7.017977125E0,8.589491089E-1,1.020846962E0,6.035890099E0,6.181576771E0
7.027971125E0,2.277527919E0,-2.351829073E-1,1.782268753E0,2.901538614E0
7.037965125E0,3.320052556E0,-1.610920484E0,-1.993793533E0,4.194404181E0
7.047959125E0,3.933226672E0,-2.874871576E0,-4.982049930E0,6.968212119E0
7.057954125E0,4.438752672E0,-4.101609234E0,-7.383351710E0,9.541467710E0
7.067948125E0,4.763940600E0,-5.305174084E0,-9.509721503E0,1.188590784E1
7.077942125E0,4.598589528E0,-6.078608687E0,-1.131347819E1,1.364152843E1
7.087936125E0,4.109754698E0,-7.043501596E0,-1.279584793E1,1.517348749E1
7.097931125E0,3.630290616E0,-7.798350824E0,-1.408824397E1,1.650672299E1
7.107925125E0,3.193047523E0,-8.281347209E0,-1.522680912E1,1.762475476E1
7.117919125E0,2.745156067E0,-8.391783571E0,-1.626349941E1,1.850565661E1
7.127913125E0,2.658216741E0,-8.441529343E0,-1.724805826E1,1.938610450E1
7.137908125E0,2.817850991E0,-8.232882562E0,-1.823641546E1,2.020612502E1
7.147902125E0,3.056053693E0,-7.793761929E0,-1.870648365E1,2.049426065E1
7.157896125E0,3.365944720E0,-7.146512579E0,-1.854396965E1,2.015641427E1
7.167890125E0,3.623396164E0,-6.570670010E0,-1.794754547E1,1.945294560E1
7.177885125E0,3.658601080E0,-6.266482065E0,-1.721843626E1,1.868498613E1
7.187879125E0,3.414860480E0,-6.170386584E0,-1.635203795E1,1.780797821E1
7.197873125E0,2.925697329E0,-6.077500055E0,-1.535440122E1,1.677060966E1
7.207867125E0,2.431468296E0,-5.989642131E0,-1.437114513E1,1.575809834E1
7.217862125E0,2.210814112E0,-5.972838403E0,-1.336792080E1,1.480755902E1
7.227856125E0,2.111353851E0,-5.802440599E0,-1.237693235E1,1.383165161E1
7.237850125E0,1.937404447E0,-5.562215345E0,-1.149518860E1,1.291631281E1
7.247844125E0,1.703664194E0,-5.136255040E0,-1.063542571E1,1.193297396E1
7.257839125E0,1.450421138E0,-4.819049731E0,-9.793438346E0,1.101083087E1
7.267833125E0,1.157746360E0,-4.476716889E0,-8.802589647E0,9.943186372E0
7.277827125E0,7.357061751E-1,-4.012789151E0,-7.777300263E0,8.782376656E0
7.287821125E0,2.940413455E-1,-3.613171138E0,-6.793591599E0,7.700282644E0
7.297816125E0,1.602297887E-2,-3.242129344E0,-5.651227509E0,6.515215405E0
7.307810125E0,-2.313327350E-1,-2.583447517E0,-4.358115767E0,5.071576574E0
7.317804125E0,-3.765726748E-1,-2.105091483E0,-2.590936924E0,3.359489734E0
7.327798125E0,-3.045625330E-1,-1.599549257E0,-4.228413999E-1,1.682293379E0
7.337793125E0,1.652798827E-1,-1.059215222E0,2.066893669E0,2.328369336E0
7.347787125E0,4.742851301E-1,-5.692695670E-1,5.109813931E0,5.163256011E0
7.357781125E0,1.941858856E-1,-1.459367086E-1,8.506274977E0,8.509742632E0
7.367776125E0,-2.491160913E-1,2.593374628E-1,1.183247939E1,1.183794253E1
7.377770125E0,-6.607391694E-1,4.054485646E-1,1.538579960E1,1.540531707E1
7.387764125E0,-7.914633232E-1,5.946317187E-1,1.920984121E1,1.923533208E1
7.397758125E0,-8.213695290E-2,9.811360355E-1,2.301998984E1,2.304103528E1
7.407753125E0,1.279954191E0,1.966796939E0,2.565455576E1,2.576165376E1
7.417747125E0,2.476019840E0,2.640872730E0,2.680124153E1,2.704461926E1
7.427741125E0,1.543627802E0,5.532553589E0,2.857346477E1,2.914506519E1
7.437735125E0,-1.011278140E-1,7.647524235E0,3.070838845E1,3.164648440E1
7.447730125E0,-7.990482583E-1,7.699400733E0,3.129289250E1,3.223607251E1
7.457724125E0,-1.366806393E0,6.740283703E0,2.975140039E1,3.053596911E1
7.467718125E0,-2.265852637E0,5.758786456E0,2.692993173E1,2.763184635E1
7.477712125E0,-2.588339590E0,5.203705596E0,2.344239738E1,2.415210236E1
7.487707125E0,-2.229855277E0,4.606171905E0,1.972621818E1,2.037922368E1
7.497701125E0,-1.899855675E0,3.953268296E0,1.608308942E1,1.667043932E1
7.507695125E0,-1.380721158E0,3.163722568E0,1.270665684E1,1.316718115E1
7.517690125E0,-6.645957005E-1,1.494504759E0,9.123468470E0,9.268921666E0
7.527684125E0,-4.221743788E-1,-5.323539019E-2,5.296121424E0,5.313188059E0
7.537678125E0,-3.394101110E-1,-1.558329603E0,1.457987435E0,2.160860416E0
7.547672125E0,-2.201223436E-1,-3.038494212E0,-2.239380099E0,3.780968679E0
7.557667125E0,5.553531937E-2,-4.489496856E0,-5.670775920E0,7.233005304E0
7.567661125E0,4.238743106E-1,-5.774856943E0,-8.747425261E0,1.049028555E1
7.577655125E0,6.942625724E-1,-6.838080724E0,-1.134931110E1,1.326831605E1
7.587650125E0,9.558629807E-1,-7.459639163E0,-1.330086259E1,1.527981793E1
7.597644125E0,1.150165884E0,-7.779882978E0,-1.487489913E1,1.682593489E1
7.607638125E0,1.235543272E0,-7.778853868E0,-1.611765816E1,1.793923184E1
7.617632125E0,1.428341906E0,-7.534948962E0,-1.719406741E1,1.882688425E1
7.627627125E0,1.693122980E0,-7.089266583E0,-1.794296593E1,1.936683744E1
7.637621125E0,1.971053127E0,-6.598082342E0,-1.835112731E1,1.960060240E1
7.647615125E0,2.205679087E0,-6.152742611E0,-1.855955716E1,1.967684994E1
7.657610125E0,2.316193509E0,-5.654434122E0,-1.854617522E1,1.952685312E1
7.667604125E0,2.338458537E0,-5.206329242E0,-1.814522228E1,1.902165461E1
7.677598125E0,2.377195171E0,-4.864356004E0,-1.731016972E1,1.813711642E1
7.687592125E0,2.453639038E0,-4.499355846E0,-1.625533436E1,1.704407353E1
7.697587125E0,2.396067352E0,-4.159130926E0,-1.506864194E1,1.581466025E1
7.707581125E0,2.214567147E0,-4.055215086E0,-1.370072794E1,1.445887351E1
7.717575125E0,1.981067069E0,-4.064547535E0,-1.233327470E1,1.313601302E1
7.727570125E0,1.745540930E0,-4.232490970E0,-1.104601251E1,1.195722733E1
7.737564125E0,1.500949706E0,-4.256766271E0,-9.857832563E0,1.084203726E1
7.747558125E0,1.175882815E0,-4.092897175E0,-8.777729040E0,9.756179313E0
7.757553125E0,8.516300029E-1,-3.863250996E0,-7.889425301E0,8.825701870E0
7.767547125E0,6.847928604E-1,-3.581024023E0,-7.205420353E0,8.075317751E0
7.777541125E0,5.650836549E-1,-3.190085909E0,-6.830503317E0,7.559877195E0
7.787535125E0,4.513256724E-1,-2.783040470E0,-6.555994669E0,7.136531035E0
7.797530125E0,4.881464665E-1,-2.578936975E0,-6.180184178E0,6.714453021E0
7.807524125E0,4.515926344E-1,-2.241733311E0,-5.506489041E0,5.962442931E0
7.817518125E0,4.119678446E-1,-1.709409230E0,-4.750259285E0,5.065250309E0
7.827513125E0,5.738906946E-1,-1.134835654E0,-3.857307594E0,4.061529806E0
7.837507125E0,7.132771330E-1,-5.444881900E-1,-2.410576633E0,2.572180274E0
7.847501125E0,7.682307275E-1,-5.916885227E-2,-1.132956505E-1,7.787909271E-1
7.857496125E0,7.820152460E-1,5.097683005E-1,2.920857296E0,3.066401622E0
7.867490125E0,7.703979979E-1,8.824050683E-1,6.542036195E0,6.646080752E0
7.877480250E0,4.391256031E-1,9.745058776E-1,1.072382976E1,1.077696700E1
7.887474250E0,-1.875510866E-1,1.300700112E0,1.502760618E1,1.508495753E1
7.897469250E0,-7.086730354E-1,1.078722118E0,1.894280472E1,1.898672456E1
7.907463250E0,-1.351078114E0,6.296226266E-1,2.249330072E1,2.254263547E1
7.917457250E0,-2.470010657E0,6.278699968E-1,2.498620264E1,2.511584153E1
7.927452250E0,-3.943658982E0,9.841833119E-1,2.622419853E1,2.653732563E1
7.937446250E0,-4.571780921E0,1.313590299E0,2.681641856E1,2.723503268E1
7.947440250E0,-3.533159593E0,1.526525135E0,2.792942203E1,2.819336998E1
7.957435250E0,-2.692477624E0,2.347605775E0,2.852181982E1,2.874464984E1
7.967429250E0,-3.369685184E0,3.127023103E0,2.779161953E1,2.816925927E1
7.977423250E0,-4.952825546E0,3.652399523E0,2.597112168E1,2.669025411E1
7.987418250E0,-6.137080259E0,3.509917495E0,2.299212669E1,2.405454561E1
7.997412250E0,-5.777805694E0,2.635638887E0,1.930663368E1,2.032426469E1
8.007406250E0,-4.608991724E0,2.095463457E0,1.570240527E1,1.649846366E1
8.017401250E0,-3.642641104E0,1.858095153E0,1.251122652E1,1.316252791E1
8.027395250E0,-2.606586412E0,1.856539502E0,9.272926226E0,9.809596955E0
8.037389250E0,-1.264105020E0,1.484624865E0,5.895705442E0,6.209783825E0
8.047384250E0,-2.654423945E-2,5.440252367E-1,2.363859719E0,2.425799008E0
8.057378250E0,9.640518600E-1,-6.669432114E-1,-1.231056996E0,1.699914869E0
8.067372250E0,1.503291516E0,-1.908678977E0,-4.569810702E0,5.175529989E0
8.077367250E0,1.797750718E0,-2.971277252E0,-7.327123715E0,8.108460895E0
8.087361250E0,2.405924004E0,-3.669286866E0,-9.552541832E0,1.051204984E1
8.097355250E0,3.168607916E0,-3.987259623E0,-1.142904490E1,1.251244911E1
8.107350250E0,4.172768387E0,-4.333178562E0,-1.307792463E1,1.439515700E1
8.117344250E0,5.109815100E0,-4.397369588E0,-1.442324265E1,1.592096097E1
8.127338250E0,5.748466705E0,-4.164769980E0,-1.517085946E1,1.674948223E1
8.137333250E0,5.983586755E0,-3.781675614E0,-1.532232807E1,1.687833281E1
8.147327250E0,5.850792979E0,-3.493035122E0,-1.504840122E1,1.651930544E1
8.157321250E0,5.756333549E0,-3.408765342E0,-1.465667753E1,1.611127721E1
8.167316250E0,5.805306319E0,-3.357735814E0,-1.426936381E1,1.576675981E1
8.177310250E0,5.883989376E0,-3.310201167E0,-1.392977975E1,1.547958419E1
8.187304250E0,5.676721954E0,-3.385252226E0,-1.361219408E1,1.513198376E1
8.197299250E0,5.407821954E0,-3.597273728E0,-1.333457763E1,1.483225800E1
8.207293250E0,5.273145375E0,-3.905321128E0,-1.313793811E1,1.468546945E1
8.217287250E0,5.171395637E0,-4.223041577E0,-1.274716050E1,1.438984065E1
8.227282250E0,4.929422650E0,-4.214646145E0,-1.223641440E1,1.384890924E1
8.237276250E0,4.604039717E0,-4.190245129E0,-1.171240331E1,1.326407657E1
8.247270250E0,4.262909063E0,-4.177989950E0,-1.136512547E1,1.283721429E1
8.257265250E0,3.888132068E0,-4.264641008E0,-1.110357016E1,1.251375261E1
8.267259250E0,3.591986675E0,-4.345801531E0,-1.095890771E1,1.232420453E1
8.277253250E0,3.386514055E0,-4.228792899E0,-1.090273936E1,1.217460029E1
8.287248250E0,3.397465013E0,-4.095820783E0,-1.091112426E1,1.213965193E1
8.297242250E0,3.496465683E0,-3.775867574E0,-1.086464241E1,1.202176787E1
8.307236250E0,3.519572418E0,-3.234947501E0,-1.065564655E1,1.167883036E1
8.317231250E0,3.425866986E0,-2.785534015E0,-1.042722975E1,1.132355441E1
8.327225250E0,3.194910739E0,-2.399886315E0,-1.015927992E1,1.091686207E1
8.337219250E0,2.700435100E0,-1.962127937E0,-9.696830649E0,1.025528256E1
8.347214250E0,2.134564666E0,-1.680666072E0,-8.824562899E0,9.233304669E0
8.357208250E0,1.745480119E0,-1.557067628E0,-7.516057193E0,7.871612044E0
8.367202250E0,1.710942078E0,-1.599679065E0,-5.564127969E0,6.037037018E0
8.377197250E0,1.955691322E0,-1.807665842E0,-2.282588684E0,3.507505587E0
8.387191250E0,1.649689862E0,-1.904457726E0,2.516636354E0,3.561164755E0
8.397185250E0,5.510929124E-1,-2.019801949E0,8.206877655E0,8.469719249E0
8.407180250E0,-9.098766030E-1,-2.400566492E0,1.430218774E1,1.453076630E1
8.417174250E0,-2.630593033E0,-3.067629718E0,2.089375512E1,2.128096273E1
8.427169250E0,-4.128248564E0,-3.699403535E0,2.730912133E1,2.786603902E1
8.437163250E0,-4.872337453E0,-3.605930530E0,3.223477369E1,3.279974150E1
8.447157250E0,-5.044459017E0,-3.277450327E0,3.555497243E1,3.606028719E1
8.457152250E0,-4.872847331E0,-2.199500627E0,3.810350476E1,3.847673998E1
8.467146250E0,-5.214374426E0,-4.340688945E-1,4.001636991E1,4.035700654E1
8.477140250E0,-6.157199358E0,1.597020483E0,3.992394180E1,4.042749939E1
8.487135250E0,-6.527638596E0,3.615076160E0,3.694495148E1,3.769095756E1
8.497129250E0,-5.821448143E0,4.805460801E0,3.172107709E1,3.260687724E1
8.507123250E0,-4.353637969E0,5.729638671E0,2.574634769E1,2.673307581E1
8.517118250E0,-2.660511773E0,6.280484977E0,2.038593847E1,2.149672770E1
8.527112250E0,-1.551935673E0,6.559049839E0,1.591681682E1,1.728510043E1
8.537107250E0,-7.527363369E-1,6.390597403E0,1.221366055E1,1.380506614E1
8.547101250E0,2.887580207E-1,4.898993740E0,8.664041042E0,9.957365517E0
8.557095250E0,8.852950546E-1,3.246943649E0,5.588187507E0,6.523360331E0
8.567090250E0,1.079967429E0,1.856897790E0,2.936628991E0,3.638432200E0
8.577084250E0,1.351162606E0,3.016129781E-1,4.549706805E-1,1.457260820E0
8.587078250E0,1.685914240E0,-1.376067944E0,-2.170243206E0,3.073406154E0
8.597073250E0,1.991993614E0,-3.009161070E0,-4.796969182E0,6.002832851E0
8.607067250E0,2.327581400E0,-4.325686817E0,-7.231327611E0,8.741927741E0
8.617062250E0,2.717240582E0,-5.299922115E0,-9.299161513E0,1.104296046E1
8.627056250E0,3.105826069E0,-6.090766218E0,-1.106375998E1,1.300578231E1
8.637050250E0,3.700710388E0,-6.766593250E0,-1.249084313E1,1.468002737E1
8.647045250E0,4.243165939E0,-7.086195041E0,-1.366717311E1,1.596903999E1
8.657039250E0,4.402142962E0,-7.080878168E0,-1.451598417E1,1.674011633E1
8.667033250E0,4.603767822E0,-7.036558612E0,-1.505922325E1,1.724784161E1
8.677028250E0,5.071152141E0,-6.795430548E0,-1.527337167E1,1.746912541E1
8.687022250E0,5.458095730E0,-6.372404376E0,-1.532311861E1,1.746986865E1
8.697017250E0,5.756272738E0,-6.115247340E0,-1.493341222E1,1.713294272E1
8.707011250E0,5.883343259E0,-5.821261032E0,-1.444364709E1,1.664691411E1
8.717005250E0,5.485161322E0,-5.642206424E0,-1.379737657E1,1.588361068E1
8.727000250E0,5.058048531E0,-5.938925137E0,-1.306024265E1,1.521264687E1
8.736994250E0,4.749641234E0,-6.393440904E0,-1.232605806E1,1.467538367E1
8.746988250E0,4.549554777E0,-6.782759632E0,-1.144070892E1,1.405681676E1
8.756983250E0,4.557977399E0,-7.110618276E0,-1.066115930E1,1.360133699E1
8.766977250E0,4.805784445E0,-7.311564859E0,-1.016892081E1,1.341497280E1
8.776972250E0,4.702475254E0,-7.351880826E0,-9.807627785E0,1.312832769E1
8.786966250E0,4.312287630E0,-7.608060792E0,-9.398016295E0,1.283748900E1
8.796960250E0,4.002240774E0,-7.858097674E0,-9.169243982E0,1.272173988E1
8.806955250E0,3.734002972E0,-8.175551198E0,-9.010444715E0,1.272676430E1
8.816949250E0,3.657945607E0,-8.362648650E0,-8.775083760E0,1.266161733E1
8.826944250E0,3.741214635E0,-8.023345250E0,-8.615965819E0,1.235336484E1
8.836938250E0,3.494101946E0,-7.549337790E0,-8.365115005E0,1.179730471E1
8.846932250E0,2.945447177E0,-6.965121424E0,-8.011073699E0,1.101661823E1
8.856927250E0,2.247128537E0,-6.193275509E0,-7.635386585E0,1.008490835E1
8.866921250E0,1.500751486E0,-5.292583859E0,-7.085291061E0,8.970231232E0
8.876916917E0,9.354001379E-1,-4.406489490E0,-6.201562183E0,7.664952483E0
8.886910917E0,6.511083667E-1,-3.088575614E0,-4.806722923E0,5.750463171E0
8.896904917E0,3.291242740E-1,-1.863333966E0,-2.401858435E0,3.057655997E0
8.906899917E0,-2.882896587E-1,-2.568769544E-2,1.098613468E0,1.136099616E0
8.916893917E0,-1.420613787E0,2.272613919E0,5.485874097E0,6.105549293E0
8.926888917E0,-3.233521950E0,3.557224686E0,1.117977809E1,1.216950902E1
8.936882917E0,-4.801072174E0,4.180687563E0,1.730270751E1,1.843670604E1
8.946876917E0,-5.609440967E0,4.418894066E0,2.264982835E1,2.374883527E1
8.956871917E0,-6.781984291E0,5.244650724E0,2.641405762E1,2.777056197E1
8.966865917E0,-8.070180278E0,6.625378314E0,2.887951037E1,3.070911212E1
8.976860917E0,-8.763707417E0,7.962818967E0,3.143393436E1,3.359019623E1
8.986854917E0,-8.631087888E0,8.351768736E0,3.379994235E1,3.587037527E1
8.996848917E0,-8.594720546E0,8.692737422E0,3.436688370E1,3.647623336E1
9.006843917E0,-8.591032707E0,8.944315630E0,3.261350487E1,3.489193782E1
9.016837917E0,-7.597775540E0,9.297042482E0,2.898831069E1,3.137647763E1
9.026832917E0,-5.534324126E0,9.888819298E0,2.423274213E1,2.675150990E1
9.036826917E0,-3.232931381E0,9.955402712E0,1.903892944E1,2.172654419E1
9.046820917E0,-1.249065251E0,9.013125663E0,1.422298019E1,1.688460138E1
9.056815917E0,-2.939965412E-2,7.423361283E0,1.009671237E1,1.253198938E1
9.066809917E0,5.112296659E-1,5.356220276E0,6.308591373E0,8.291488198E0
9.076804917E0,9.726007086E-1,2.987688632E0,2.596238009E0,4.075866448E0
9.086798917E0,1.353713893E0,5.604886571E-1,-9.280729920E-1,1.734361069E0
9.096793917E0,1.460419877E0,-1.673760803E0,-4.169148960E0,4.723992432E0
9.106787917E0,1.578271532E0,-3.683213180E0,-7.170143516E0,8.213888141E0
9.116781917E0,2.006980174E0,-5.562056885E0,-9.528128538E0,1.121381646E1
9.126776917E0,2.554229858E0,-7.164817287E0,-1.110867127E1,1.346333073E1
9.136770917E0,2.802903169E0,-8.224377202E0,-1.204448539E1,1.485147383E1
9.146765917E0,2.732730734E0,-9.041318014E0,-1.259795944E1,1.574553368E1
9.156759917E0,2.633500561E0,-9.642599478E0,-1.293067069E1,1.634372339E1
9.166753917E0,2.639573186E0,-1.005523924E1,-1.307367955E1,1.670318173E1
9.176748917E0,2.500409161E0,-1.020796267E1,-1.326472680E1,1.692357896E1
9.186742917E0,2.251837738E0,-1.030462767E1,-1.348532119E1,1.712045596E1
9.196737917E0,1.936256347E0,-1.034667382E1,-1.368184026E1,1.726254619E1
9.206731917E0,1.631055225E0,-1.028903197E1,-1.369893752E1,1.721003804E1
9.216726917E0,1.407540875E0,-1.019206877E1,-1.350256931E1,1.697583032E1
9.226720917E0,1.150983909E0,-1.002911622E1,-1.300318552E1,1.646179728E1
9.236714917E0,9.670341593E-1,-9.871492828E0,-1.233310513E1,1.582678135E1
9.246709917E0,1.030270627E0,-9.693183741E0,-1.164247061E1,1.518441275E1
9.256703917E0,1.284837200E0,-9.466927485E0,-1.078886015E1,1.441086486E1
9.266698917E0,1.870450466E0,-9.242994913E0,-9.812710769E0,1.360958605E1
9.276692917E0,2.360283416E0,-8.706201221E0,-8.950535898E0,1.270751629E1
9.286687917E0,2.434989051E0,-8.120975626E0,-8.204227113E0,1.179782858E1
9.296681917E0,2.232546020E0,-7.606180328E0,-7.808495743E0,1.112703225E1
9.306675917E0,2.161034426E0,-7.212222419E0,-7.750290220E0,1.080524042E1
9.316670917E0,2.218142866E0,-6.948847454E0,-7.781420796E0,1.066569962E1
9.326664917E0,2.310020311E0,-6.572091469E0,-7.769246893E0,1.043502647E1
9.336659917E0,2.468545929E0,-6.131488566E0,-7.654768351E0,1.011357254E1
9.346653917E0,2.646291929E0,-5.613262707E0,-7.455964773E0,9.700669559E0
9.356648917E0,2.761794319E0,-4.883892721E0,-7.241959019E0,9.161107269E0
9.366642917E0,2.722703344E0,-4.042160008E0,-6.842477245E0,8.400694369E0
9.376636917E0,2.406801378E0,-3.033044314E0,-6.309917521E0,7.403182411E0
9.386631917E0,1.907028893E0,-2.090592727E0,-5.717891030E0,6.379781734E0
9.396625917E0,1.245570809E0,-1.160417953E0,-4.741623532E0,5.037956946E0
9.406620917E0,2.344337328E-1,3.207197785E-3,-2.894833093E0,2.904311984E0
9.416614917E0,-8.560124910E-1,1.031041875E0,9.956106716E-1,1.669444621E0
9.426609917E0,-1.106773843E0,1.939021495E0,6.961506675E0,7.310767941E0
9.436603917E0,-6.344426326E-1,3.539792674E0,1.334031024E1,1.381653093E1
9.446598917E0,-7.493312109E-1,4.941222332E0,1.983996991E1,2.045975517E1
9.456592917E0,-1.778278613E0,5.828151391E0,2.639477818E1,2.708900033E1
9.466586917E0,-3.845917802E0,6.761240709E0,3.161398416E1,3.255686493E1
9.476581917E0,-6.089329557E0,7.692586387E0,3.434633424E1,3.572011332E1
9.486575917E0,-7.578107845E0,8.987014922E0,3.573186006E1,3.761595378E1
9.496570917E0,-8.047729309E0,1.019419130E1,3.765755633E1,3.983439509E1
9.506564917E0,-7.716654696E0,1.111825369E1,3.889276895E1,4.118021128E1
9.516559917E0,-7.073135870E0,1.156550488E1,3.762939147E1,3.999701559E1
9.526553917E0,-6.654279932E0,1.176268001E1,3.303959849E1,3.569671064E1
9.536548917E0,-5.679140947E0,1.210511050E1,2.646002141E1,2.964656937E1
9.546542917E0,-3.006838848E0,1.191400127E1,1.939633348E1,2.296088540E1
9.556536917E0,-1.592907259E-1,1.094909725E1,1.371296031E1,1.754860065E1
9.566531917E0,1.964701443E0,9.172595022E0,9.540945050E0,1.338006665E1
9.576525917E0,3.010624920E0,6.511009115E0,5.869153821E0,9.268444782E0
9.586520917E0,3.413730213E0,3.224458181E0,2.055118546E0,5.125836202E0
9.596514917E0,3.479451163E0,2.947025925E-2,-1.636394756E0,3.845157563E0
9.606509917E0,3.536990104E0,-2.991972302E0,-5.330807692E0,7.062556754E0
9.616503917E0,3.787010613E0,-5.912888070E0,-8.616099136E0,1.111489357E1
9.626498917E0,4.060021790E0,-8.501140537E0,-1.114142738E1,1.459056446E1
9.636492917E0,3.948727056E0,-1.049697650E1,-1.309721459E1,1.724285334E1
9.646487917E0,3.452617705E0,-1.195015343E1,-1.481025933E1,1.934090271E1
9.656481917E0,2.784736454E0,-1.280413694E1,-1.646947460E1,2.104624131E1
9.666476917E0,2.101090818E0,-1.311424987E1,-1.752320484E1,2.198774295E1
9.676470917E0,1.581522730E0,-1.299399486E1,-1.807041067E1,2.231333365E1
9.686464917E0,1.514758929E0,-1.262600269E1,-1.818177557E1,2.218755059E1
9.696459917E0,1.620530675E0,-1.218650959E1,-1.777484327E1,2.161208433E1
9.706453917E0,1.927089082E0,-1.166887663E1,-1.688582091E1,2.061570523E1
9.716448917E0,2.232405687E0,-1.102894683E1,-1.563973482E1,1.926713804E1
9.726442917E0,2.375092951E0,-1.049293959E1,-1.419354999E1,1.781010132E1
9.736437917E0,2.544830459E0,-1.001022387E1,-1.274722248E1,1.640647509E1
9.746431917E0,2.779914256E0,-9.484137011E0,-1.136213638E1,1.505904782E1
9.756426917E0,3.015261470E0,-8.991549438E0,-1.003344316E1,1.380614880E1
9.766420917E0,3.305122275E0,-8.557756788E0,-8.864042714E0,1.275657821E1
9.776415917E0,3.626767668E0,-8.084564429E0,-8.014182079E0,1.194741563E1
9.786409917E0,3.783715707E0,-7.705484176E0,-7.637457669E0,1.149007183E1
9.796404917E0,3.819576681E0,-7.237387081E0,-7.541389670E0,1.112840941E1
9.806398917E0,3.935718756E0,-6.784086365E0,-7.551132885E0,1.088730076E1
9.816393917E0,3.909772906E0,-6.435498757E0,-7.530469410E0,1.064941022E1
9.826387917E0,3.668792484E0,-6.193236918E0,-7.421792475E0,1.033920816E1
9.836382917E0,3.412133046E0,-5.921187608E0,-7.246712805E0,9.960821306E0
9.846376917E0,3.054607969E0,-5.823349072E0,-6.963515779E0,9.577712475E0
9.856370917E0,2.558933066E0,-5.696116583E0,-6.592291844E0,9.080319065E0
9.866365917E0,2.088682880E0,-5.514541826E0,-6.071944615E0,8.464117150E0
9.876359375E0,1.671268719E0,-5.219550966E0,-5.412157665E0,7.702486742E0
9.886354375E0,1.307391812E0,-4.666486226E0,-4.820389620E0,6.835314414E0
9.896348375E0,1.088066407E0,-3.892322768E0,-4.570366772E0,6.101009545E0
9.906343375E0,9.693414706E-1,-2.846695890E0,-4.620129501E0,5.512612537E0
9.916337375E0,7.590410972E-1,-1.812264969E0,-4.552393600E0,4.958299628E0
9.926332375E0,3.401494914E-1,-8.761163878E-1,-3.777232314E0,3.892398433E0
9.936326375E0,-1.633326137E-1,-2.611468837E-1,-1.915885232E0,1.940487428E0
9.946321375E0,-8.984539211E-1,-1.763923699E-1,1.479083020E0,1.739546003E0
9.956315375E0,-1.458328474E0,-5.729014188E-1,6.623789041E0,6.806579114E0
9.966310375E0,-1.153369427E0,-1.221028436E0,1.367652982E1,1.377928298E1
9.976304375E0,-1.689869809E-1,-1.535726168E0,2.206286613E1,2.211689565E1
9.986299375E0,2.702906133E-1,2.457149121E-1,3.033078696E1,3.033298651E1
9.996293375E0,-5.664656078E-1,3.303593813E0,3.763401310E1,3.778297974E1
1.000628838E1,-1.896173830E0,5.702603484E0,4.415579630E1,4.456287141E1
1.001628237E1,-2.101445598E0,7.011024406E0,4.755646208E1,4.811639660E1
1.002627737E1,-2.355612075E0,6.264102833E0,4.639755329E1,4.687772226E1
1.003627137E1,-2.856261643E0,5.896372025E0,4.160463272E1,4.211734675E1
1.004626638E1,-2.959386939E0,6.574284174E0,3.514568371E1,3.587754544E1
1.005626038E1,-2.308388938E0,7.762002777E0,2.789364409E1,2.904535638E1
1.006625538E1,-7.265693159E-1,8.303618669E0,2.024034046E1,2.188948076E1
1.007624938E1,3.692899677E-1,8.040612663E0,1.312059059E1,1.539278157E1
1.008624437E1,9.430911999E-1,6.946437231E0,6.924344112E0,9.853372651E0
1.009623837E1,1.565403857E0,5.541362420E0,1.826795300E0,6.041056842E0
1.010623237E1,2.538102068E0,3.926486587E0,-2.265035927E0,5.195156088E0
1.011622738E1,2.785314452E0,1.759394738E0,-5.757441596E0,6.633368690E0
1.012622138E1,2.210156592E0,-3.357651030E-1,-8.379785669E0,8.672850641E0
1.013621638E1,1.829658389E0,-2.230227745E0,-1.066118620E1,1.104456684E1
1.014621038E1,1.582688519E0,-3.824409404E0,-1.290871556E1,1.355602994E1
1.015620537E1,1.324169958E0,-4.798359358E0,-1.484391356E1,1.565629102E1
1.016619937E1,1.030388887E0,-5.591256126E0,-1.625991858E1,1.722523725E1
1.017619437E1,6.497054004E-1,-5.836385440E0,-1.704622173E1,1.802939787E1
1.018618838E1,3.698398983E-1,-5.516360895E0,-1.753555299E1,1.838647975E1
1.019618338E1,2.057005151E-1,-4.976600910E0,-1.798300766E1,1.866004914E1
1.020617738E1,2.101601864E-1,-4.666492366E0,-1.823214933E1,1.882104109E1
1.021617238E1,3.225313921E-1,-4.228106436E0,-1.820565677E1,1.869296255E1
1.022616637E1,6.370053211E-1,-3.999820611E0,-1.785318661E1,1.830684606E1
1.023616137E1,9.447118288E-1,-3.783105258E0,-1.740149037E1,1.783300964E1
1.024615537E1,1.161687676E0,-3.907020914E0,-1.672591710E1,1.721541849E1
1.025615037E1,1.430740580E0,-4.102743594E0,-1.587369712E1,1.645763603E1
1.026614438E1,1.685776831E0,-3.970161780E0,-1.504944319E1,1.565534313E1
1.027613938E1,1.711853512E0,-3.932278546E0,-1.417615920E1,1.481069703E1
1.028613338E1,1.567512217E0,-3.479290364E0,-1.333675397E1,1.387197039E1
1.029612837E1,1.472355506E0,-3.071036013E0,-1.255782649E1,1.301146030E1
1.030612237E1,1.564806418E0,-2.689988172E0,-1.193356254E1,1.233266275E1
1.031611737E1,1.645545941E0,-2.351459236E0,-1.134105132E1,1.169857372E1
1.032611137E1,1.820107694E0,-2.129864674E0,-1.101188231E1,1.136268752E1
1.033610638E1,1.951861688E0,-1.710608202E0,-1.066844493E1,1.097960208E1
1.034610038E1,2.010794898E0,-1.248322508E0,-1.031090875E1,1.057905687E1
1.035609538E1,1.999132626E0,-1.211768201E0,-9.817859827E0,1.009233794E1
1.036608937E1,1.775927448E0,-7.689694501E-1,-9.375355411E0,9.573010049E0
1.037608437E1,1.629433061E0,-7.971744449E-1,-8.818238550E0,9.002881224E0
1.038607937E1,1.426573708E0,-4.455482214E-1,-8.082814357E0,8.219824432E0
1.039607337E1,1.405959057E0,-4.411883912E-1,-7.066243756E0,7.218252482E0
1.040606838E1,1.807014170E0,-4.170775802E-1,-5.583078795E0,5.883028366E0
1.041606238E1,2.621730115E0,-4.258065961E-1,-3.594510918E0,4.469372305E0
1.042605738E1,3.602522188E0,-1.253054221E0,-2.754640836E-1,3.824158922E0
1.043605137E1,4.429576929E0,-2.343251646E0,4.699877336E0,6.870285803E0
1.044604637E1,4.031528893E0,-3.534184317E0,1.153103671E1,1.271646537E1
1.045604037E1,2.505771935E0,-3.921089899E0,1.954925571E1,2.009545316E1
1.046603537E1,3.291294268E-1,-4.670165294E0,2.799707198E1,2.838582057E1
1.047602938E1,-1.508909375E0,-5.259378106E0,3.440298441E1,3.483537285E1
1.048602438E1,-2.080172258E0,-5.728145292E0,3.652431448E1,3.702923593E1
1.049601838E1,-1.904867616E0,-5.997788472E0,3.558069550E1,3.613291961E1
1.050601338E1,-1.951794299E0,-4.930595017E0,3.374762614E1,3.416171158E1
1.051600737E1,-2.722459515E0,-3.480336431E0,3.247378916E1,3.277303022E1
1.052600237E1,-3.992331205E0,-1.846369586E0,3.123424259E1,3.154244282E1
1.053599637E1,-4.913029397E0,-3.523970693E-1,2.902577029E1,2.944074358E1
1.054599138E1,-5.179812119E0,2.635834184E-1,2.570316952E1,2.622122905E1
1.055598538E1,-5.154542207E0,1.162937226E0,2.195494992E1,2.258188553E1
1.056598038E1,-4.798220779E0,2.412897685E0,1.828958770E1,1.906184713E1
1.057597438E1,-3.942802073E0,3.323612341E0,1.485227157E1,1.572202462E1
1.058596937E1,-2.950987414E0,3.836606696E0,1.153986133E1,1.251384342E1
1.059596337E1,-2.005537374E0,3.902652751E0,8.506148093E0,9.571177254E0
1.060595837E1,-9.811611785E-1,3.527005398E0,5.717006346E0,6.788711652E0
1.061595238E1,1.291253789E-1,2.525705971E0,2.939730354E0,3.877870365E0
1.062594738E1,8.510120983E-1,1.026657194E0,2.104062080E-2,1.333675108E0
1.063594138E1,1.067592308E0,-8.171703876E-1,-2.947008383E0,3.239194219E0
1.064593638E1,1.138713454E0,-2.745471232E0,-5.869328068E0,6.579003920E0
1.065593037E1,1.303707920E0,-4.330939078E0,-8.705023592E0,9.809899254E0
1.066592537E1,1.450071329E0,-5.303240994E0,-1.121401354E1,1.248924224E1
1.067591937E1,1.628865296E0,-5.827462589E0,-1.361056154E1,1.489496249E1
1.068591437E1,1.776449312E0,-6.235683610E0,-1.570549494E1,1.699123579E1
1.069590838E1,1.825512567E0,-6.131279236E0,-1.725494277E1,1.840266642E1
1.070590338E1,1.820531470E0,-5.766224699E0,-1.841221317E1,1.937971300E1
1.071589738E1,1.894008167E0,-5.415910408E0,-1.927306598E1,2.010896380E1
1.072589237E1,2.037350758E0,-4.940437635E0,-1.960620057E1,2.032146213E1
1.073588737E1,2.424988850E0,-4.467305503E0,-1.936620277E1,2.002216770E1
1.074588137E1,2.842156112E0,-4.144291277E0,-1.875238780E1,1.941404259E1
1.075587637E1,3.147841822E0,-3.480940741E0,-1.789001705E1,1.849536608E1
1.076587038E1,3.380120125E0,-3.081388801E0,-1.687252785E1,1.748148635E1
1.077586538E1,3.516797622E0,-2.842479463E0,-1.580575715E1,1.643987573E1
1.078585938E1,3.626001098E0,-2.806500961E0,-1.457616371E1,1.528034293E1
1.079585437E1,3.238699660E0,-2.748972252E0,-1.348915346E1,1.414225176E1
1.080584837E1,2.358933001E0,-2.735115813E0,-1.259590356E1,1.310351899E1
1.081584337E1,1.406555911E0,-2.810676165E0,-1.192412865E1,1.233138857E1
1.082583737E1,5.726311313E-1,-3.001512035E0,-1.142070677E1,1.182241617E1
1.083583238E1,2.457650520E-2,-3.056356578E0,-1.122275045E1,1.163151096E1
1.084582638E1,-2.951115321E-1,-3.199195871E0,-1.127388084E1,1.172272726E1
1.085582138E1,-1.252178308E-1,-3.253165087E0,-1.115209621E1,1.161757343E1
1.086581538E1,6.304861873E-1,-2.864192806E0,-1.058525075E1,1.098401778E1
1.087581100E1,1.263866308E0,-2.254273250E0,-9.851152704E0,1.018451351E1
1.088580500E1,1.281899998E0,-1.572441127E0,-8.899817734E0,9.128121077E0
1.089580000E1,8.997402354E-1,-1.189656443E0,-7.869489219E0,8.009598961E0
1.090579400E1,4.157153251E-1,-1.124916291E0,-6.490156190E0,6.600029035E0
1.091578900E1,-6.018173620E-2,-9.234605621E-1,-4.576079502E0,4.668715547E0
1.092578400E1,-2.388103006E-1,-1.114692069E0,-2.121522451E0,2.408407415E0
1.093577800E1,-2.917731375E-2,-1.364481979E0,1.486008462E0,2.017643065E0
1.094577300E1,6.125230291E-1,-1.755841823E0,6.142147456E0,6.417487074E0
1.095576700E1,8.490132277E-1,-1.839046533E0,1.176208242E1,1.193522092E1
1.096576200E1,1.120048411E-1,-1.871365263E0,1.785036825E1,1.794854311E1
1.097575600E1,-8.475525932E-1,-2.444956946E0,2.339372983E1,2.353641339E1
1.098575100E1,-1.831377471E0,-3.346019456E0,2.804099158E1,2.829924025E1
1.099574500E1,-3.097764806E0,-3.810120564E0,3.116824156E1,3.155269319E1
1.100574000E1,-4.598549474E0,-3.393987089E0,3.249246049E1,3.299129876E1
1.101573400E1,-6.357834284E0,-3.035586391E0,3.262776272E1,3.337975047E1
1.102572900E1,-6.900085768E0,-1.269234198E0,3.298615962E1,3.372401022E1
1.103572300E1,-5.892040992E0,-1.441386532E-1,3.280367035E1,3.332893205E1
1.104571800E1,-5.188087683E0,1.587653389E0,3.060659544E1,3.108376718E1
1.105571200E1,-4.723552712E0,2.820476098E0,2.643587241E1,2.700226631E1
1.106570700E1,-3.784875210E0,3.731302435E0,2.128072853E1,2.193438636E1
1.107570100E1,-2.400285680E0,4.658513840E0,1.642872769E1,1.724430967E1
1.108569600E1,-6.541109850E-1,5.233898279E0,1.244657737E1,1.351809308E1
1.109569000E1,8.422349891E-1,5.477879784E0,9.442917649E0,1.094921095E1
1.110568500E1,1.638367168E0,5.002411104E0,6.977684167E0,8.740505716E0
1.111568000E1,1.582647588E0,3.660316653E0,4.710490032E0,6.171823696E0
1.112567400E1,1.147614159E0,1.731267584E0,2.402685231E0,3.176035583E0
1.113566900E1,6.133325031E-1,-5.286988074E-1,-2.086403489E-2,8.100212937E-1
1.114566300E1,5.847654194E-2,-2.786490327E0,-2.491635414E0,3.738474941E0
1.115565800E1,-3.837580258E-1,-5.251049332E0,-4.918845037E0,7.205263757E0
1.116565200E1,-8.886048710E-1,-7.069081995E0,-7.263647511E0,1.017458176E1
1.117564700E1,-1.203454045E0,-8.762812209E0,-9.619870182E0,1.306817056E1
1.118564100E1,-1.500941082E0,-1.002298366E1,-1.157186782E1,1.538249493E1
1.119563600E1,-1.803833723E0,-1.060754501E1,-1.310923764E1,1.695953828E1
1.120563000E1,-2.139439489E0,-1.065684990E1,-1.427250611E1,1.794018065E1
1.121562500E1,-2.667553575E0,-1.025228573E1,-1.512784266E1,1.846826544E1
1.122561900E1,-3.114288745E0,-9.726202383E0,-1.589967630E1,1.889702393E1
1.123561400E1,-3.215118424E0,-9.523084145E0,-1.647542356E1,1.929937044E1
1.124560800E1,-3.114373822E0,-9.187841637E0,-1.690493897E1,1.949083681E1
1.125560300E1,-2.775588778E0,-8.949530761E0,-1.713923924E1,1.953334369E1
1.126559700E1,-2.300465961E0,-8.732544097E0,-1.688479297E1,1.914799477E1
1.127559200E1,-1.917825338E0,-8.261752020E0,-1.622805593E1,1.831077278E1
1.128558700E1,-1.742000002E0,-7.781314377E0,-1.528602622E1,1.724082408E1
1.129558100E1,-1.620545732E0,-7.330517439E0,-1.411866119E1,1.599059874E1
1.130557600E1,-1.312634864E0,-6.891089827E0,-1.278842898E1,1.458609081E1
1.131557000E1,-1.006291488E0,-6.476870731E0,-1.144073348E1,1.318532744E1
1.132556500E1,-1.045687834E0,-6.010977452E0,-1.020045601E1,1.188589987E1
1.133555900E1,-1.156963710E0,-5.722603886E0,-9.170916871E0,1.087163633E1
1.134555400E1,-1.137130540E0,-5.378694634E0,-8.373951318E0,1.001730914E1
1.135554800E1,-9.047029866E-1,-4.926452265E0,-7.727858546E0,9.209137697E0
1.136554300E1,-4.910421538E-1,-4.347805957E0,-7.285758172E0,8.498635842E0
1.137553700E1,-1.140221670E-1,-3.646261116E0,-6.972371972E0,7.869065516E0
1.138553200E1,1.262312995E-1,-2.974852532E0,-6.662058483E0,7.297171038E0
1.139552600E1,3.669245497E-1,-2.354282857E0,-6.229560991E0,6.669686015E0
1.140552100E1,5.103492945E-1,-1.734736152E0,-5.582811577E0,5.868351645E0
1.141551600E1,5.028503135E-1,-1.429447176E0,-4.744249517E0,4.980369579E0
1.142551000E1,6.668115760E-1,-7.815876684E-1,-3.407445626E0,3.558960895E0
1.143550500E1,1.096149452E0,1.994646057E-2,-1.461555406E0,1.827042881E0
1.144549900E1,1.388906968E0,9.610637136E-1,8.576713461E-1,1.894282493E0
1.145549400E1,1.509834550E0,1.722509917E0,3.328981254E0,4.040885667E0
1.146548800E1,1.472209033E0,1.975272039E0,6.262915263E0,6.730022783E0
1.147548300E1,1.327088450E0,2.343130609E0,9.867431352E0,1.022827582E1
1.148547700E1,1.158384730E0,2.730490958E0,1.363286749E1,1.395179244E1
1.149547200E1,7.413295155E-1,2.913494482E0,1.728589208E1,1.754537217E1
1.150546600E1,2.769412364E-1,2.814860725E0,2.128273529E1,2.146986164E1
1.151546100E1,-2.693224606E-1,2.783678693E0,2.541284824E1,2.556627187E1
1.152545500E1,-1.423395454E0,3.683390935E0,2.908576506E1,2.935260044E1
1.153545000E1,-2.721074602E0,4.420282195E0,3.258710118E1,3.299791365E1
1.154544400E1,-3.445649579E0,5.097182776E0,3.575824036E1,3.628368127E1
1.155543900E1,-3.739848726E0,5.649827685E0,3.731423590E1,3.792438822E1
1.156543400E1,-4.309567797E0,5.869284799E0,3.620573946E1,3.693069792E1
1.157542800E1,-4.859778804E0,5.713575785E0,3.245039328E1,3.330601180E1
1.158542300E1,-4.745362242E0,5.375945274E0,2.714943387E1,2.808043820E1
1.159541700E1,-3.655212326E0,5.192594717E0,2.163198948E1,2.254476849E1
1.160541200E1,-1.836047934E0,4.933117506E0,1.631674065E1,1.714475855E1
1.161540600E1,-1.748492897E-2,4.050356342E0,1.132887391E1,1.203117102E1
1.162540100E1,1.258065285E0,2.617859259E0,6.409340653E0,7.036729564E0
1.163539500E1,1.983512374E0,7.316664800E-1,1.959599601E0,2.882652905E0
1.164539000E1,2.250928204E0,-1.120970590E0,-2.043719984E0,3.240377172E0
1.165538400E1,2.194311515E0,-3.317007326E0,-5.464428849E0,6.758514872E0
1.166537900E1,1.911324404E0,-5.558127556E0,-8.396404041E0,1.024917283E1
1.167537300E1,1.492836256E0,-7.542039295E0,-1.083300312E1,1.328400819E1
1.168536800E1,9.767494543E-1,-9.173693129E0,-1.286419019E1,1.583028977E1
1.169536300E1,3.857934415E-1,-1.034850868E1,-1.439613262E1,1.773384061E1
1.170535700E1,-2.558800042E-1,-1.085797424E1,-1.536626522E1,1.881709823E1
1.171535200E1,-1.104032522E0,-1.041616214E1,-1.601957696E1,1.914006707E1
1.172534600E1,-2.089603524E0,-1.019178342E1,-1.638143658E1,1.940593612E1
1.173534100E1,-3.093413308E0,-1.000389952E1,-1.668543683E1,1.969901047E1
1.174533500E1,-3.905695642E0,-9.868769195E0,-1.689889412E1,1.995544252E1
1.175533000E1,-4.577328467E0,-9.827698352E0,-1.703092425E1,2.018880807E1
1.176532400E1,-5.144197898E0,-9.932950573E0,-1.682891815E1,2.020739382E1
1.177531900E1,-5.531568918E0,-1.001283056E1,-1.630962225E1,1.992131543E1
1.178531300E1,-5.664672012E0,-1.022681877E1,-1.551922019E1,1.942993892E1
1.179530800E1,-5.599577883E0,-1.028052544E1,-1.448523366E1,1.862435153E1
1.180530300E1,-5.466946660E0,-9.958663119E0,-1.314221710E1,1.737182625E1
1.181529700E1,-5.230502801E0,-9.326696051E0,-1.166613078E1,1.582542341E1
1.182529200E1,-4.819580658E0,-8.599691264E0,-1.047723981E1,1.438595154E1
1.183528600E1,-4.407192033E0,-7.931409479E0,-9.495922658E0,1.313404527E1
1.184528100E1,-4.107801728E0,-7.198037074E0,-8.762607556E0,1.206105567E1
1.185527500E1,-3.897252848E0,-6.437976222E0,-8.206471859E0,1.113473385E1
1.186527000E1,-3.642286471E0,-5.765871527E0,-7.624196768E0,1.022936467E1
1.187526687E1,-3.507932073E0,-5.363012402E0,-7.122478768E0,9.581085182E0
1.188526188E1,-3.486282465E0,-4.564907227E0,-6.869431155E0,8.954419457E0
1.189525588E1,-3.093532883E0,-4.172058827E0,-6.573242785E0,8.377561774E0
1.190525088E1,-2.489047729E0,-3.727925376E0,-6.185713305E0,7.639099116E0
1.191524588E1,-1.936760961E0,-3.357336449E0,-5.562326442E0,6.779544712E0
1.192523987E1,-1.282101142E0,-2.600029344E0,-4.739858258E0,5.556095052E0
1.193523487E1,-4.276220834E-1,-1.734397891E0,-3.882521957E0,4.273754022E0
1.194522887E1,3.017329922E-1,-1.001914262E0,-2.772446192E0,2.963331381E0
1.195522387E1,1.554007195E0,1.538422903E-1,-1.174788655E0,1.954158181E0
1.196521788E1,3.152409375E0,1.288510275E0,9.295312876E-1,3.530151839E0
1.197521288E1,4.622719817E0,2.620972024E0,3.120437384E0,6.162480209E0
1.198520688E1,5.701570866E0,3.489126551E0,5.277212114E0,8.516506450E0
1.199520187E1,6.607102257E0,4.440648631E0,8.156827244E0,1.139767481E1
1.200519687E1,7.654543233E0,5.077471812E0,1.192546181E1,1.505288649E1
1.201519087E1,8.541222031E0,6.850482084E0,1.628450027E1,1.962311208E1
1.202518587E1,9.498647461E0,8.753300543E0,2.021193001E1,2.398680239E1
1.203517988E1,1.018117189E1,9.654412608E0,2.311300267E1,2.703839560E1
1.204517488E1,9.953671936E0,1.006726579E1,2.452658576E1,2.831923083E1
1.205516888E1,9.259613285E0,9.943721144E0,2.619864386E1,2.951248835E1
1.206516387E1,9.344034215E0,9.363301960E0,2.856157621E1,3.147611848E1
1.207515787E1,1.000981222E1,8.865474697E0,3.000101569E1,3.284591184E1
1.208515287E1,9.761668670E0,8.626717680E0,2.959869217E1,3.233872309E1
1.209514787E1,8.348026518E0,8.556245867E0,2.725071232E1,2.975735560E1
1.210514188E1,6.546581236E0,8.344822828E0,2.335867227E1,2.565387620E1
1.211513688E1,5.129254754E0,7.610571586E0,1.880528405E1,2.092531392E1
1.212513088E1,4.118579023E0,6.326094428E0,1.449297421E1,1.634100564E1
1.213512588E1,3.477206709E0,4.678379463E0,1.065640785E1,1.214649041E1
1.214511987E1,2.834482226E0,2.992812547E0,7.082935803E0,8.195071447E0
1.215511487E1,1.878845460E0,1.480207440E0,3.930791892E0,4.601325811E0
1.216510887E1,7.083305347E-1,-1.454921740E-1,1.066481849E0,1.288519947E0
1.217510388E1,-5.184799209E-1,-1.741370696E0,-1.543171427E0,2.383814460E0
1.218509788E1,-1.650236577E0,-3.086668252E0,-4.213029975E0,5.477264210E0
1.219509288E1,-2.452697344E0,-4.802331956E0,-6.778629743E0,8.661866870E0
1.220508788E1,-2.972568317E0,-6.471567307E0,-9.299656772E0,1.171328143E1
1.221508187E1,-3.666650064E0,-6.949362009E0,-1.107410370E1,1.357842877E1
1.222507687E1,-4.639715042E0,-6.888812921E0,-1.203343182E1,1.462142881E1
1.223507087E1,-5.597437218E0,-6.924128934E0,-1.257956878E1,1.541169736E1
1.224506587E1,-6.527187191E0,-7.095637125E0,-1.326297497E1,1.639691263E1
1.225505988E1,-7.552883542E0,-7.712152340E0,-1.381247057E1,1.753019357E1
1.226505488E1,-8.776433882E0,-8.317323373E0,-1.395161091E1,1.846215336E1
1.227504988E1,-9.703522203E0,-8.438366584E0,-1.404167675E1,1.904030093E1
1.228504387E1,-9.949791723E0,-8.574922459E0,-1.428342871E1,1.940474133E1
1.229503887E1,-9.484075030E0,-8.799123418E0,-1.448450744E1,1.942094765E1
1.230503287E1,-8.879463576E0,-8.548257401E0,-1.440982329E1,1.896208283E1
1.231502787E1,-8.200673760E0,-8.218384391E0,-1.392130246E1,1.812720481E1
1.232502188E1,-7.216715419E0,-8.195804783E0,-1.318241905E1,1.711807143E1
1.233501688E1,-6.173107293E0,-8.171328338E0,-1.233468271E1,1.603191373E1
1.234501088E1,-5.250433620E0,-8.076943168E0,-1.149033307E1,1.499439289E1
1.235500587E1,-4.460304924E0,-8.000464511E0,-1.046470221E1,1.390725511E1
1.236500087E1,-3.839091763E0,-7.800119022E0,-9.389389313E0,1.279613668E1
1.237499487E1,-3.254887676E0,-7.490438787E0,-8.343835233E0,1.167563931E1
1.238498987E1,-2.618183487E0,-7.018085504E0,-7.476394359E0,1.058323587E1
1.239498388E1,-2.022483482E0,-6.381579827E0,-6.867729031E0,9.590657046E0
1.240497888E1,-1.358171664E0,-5.748557922E0,-6.319085956E0,8.649936171E0
1.241497288E1,-7.253368691E-1,-5.006942697E0,-5.951852746E0,7.811538891E0
1.242496788E1,-2.477032578E-1,-4.371721069E0,-5.803041108E0,7.269703440E0
1.243496287E1,1.535493448E-1,-3.941463060E0,-5.810588694E0,7.022937379E0
1.244495687E1,5.722918466E-1,-3.653716608E0,-5.577949618E0,6.692584325E0
1.245495187E1,9.331314182E-1,-3.195623514E0,-4.839655026E0,5.874096072E0
1.246494588E1,1.327223813E0,-2.586266168E0,-3.794433653E0,4.779960511E0
1.247494088E1,1.831756955E0,-1.883839274E0,-2.330627069E0,3.512265151E0
1.248493488E1,2.230733090E0,-8.845697075E-1,-4.876437521E-1,2.448760935E0
1.249492988E1,2.497876732E0,8.988427609E-2,2.047541724E0,3.231082553E0
1.250492387E1,2.753716098E0,1.015235682E0,5.188281811E0,5.960866044E0
1.251491887E1,2.929282549E0,2.038181794E0,8.382418671E0,9.110423922E0
1.252491387E1,3.338008186E0,2.844778296E0,1.188020904E1,1.266390260E1
1.253490787E1,4.000021171E0,3.917639457E0,1.607070502E1,1.701809707E1
1.254490288E1,4.769874647E0,5.399984347E0,2.044229160E1,2.167484304E1
1.255489688E1,5.169512833E0,6.346683644E0,2.469481951E1,2.601611745E1
1.256489188E1,4.730129076E0,6.751426742E0,2.810926367E1,2.929311503E1
1.257488587E1,3.105546280E0,7.601414262E0,3.049300743E1,3.157925615E1
1.258488087E1,1.182102791E0,8.150235677E0,3.279711913E1,3.381530322E1
1.259487587E1,7.081052707E-1,8.500814263E0,3.447192308E1,3.551167043E1
1.260486987E1,7.543365736E-1,8.947100658E0,3.380028148E1,3.497254155E1
1.261486488E1,5.008028378E-1,9.336156846E0,3.070805633E1,3.209983414E1
1.262485888E1,1.041725323E-2,9.649319683E0,2.606949758E1,2.779798883E1
1.263485388E1,-3.462330808E-1,9.190962296E0,2.062575851E1,2.258352452E1
1.264484787E1,-2.962783440E-1,7.990640019E0,1.526880383E1,1.723584866E1
1.265484287E1,1.789040413E-1,6.492568751E0,1.041127386E1,1.227110749E1
1.266483687E1,6.867434916E-1,4.643586191E0,6.231391754E0,7.801586539E0
1.267483187E1,1.018197004E0,2.644992678E0,2.532105163E0,3.800561533E0
1.268482688E1,1.141344628E0,8.101212037E-1,-8.986977500E-1,1.663316437E0
1.269482088E1,1.183385231E0,-9.962120578E-1,-4.410795672E0,4.674179878E0
1.270481588E1,8.888716502E-1,-2.569879054E0,-7.354912607E0,7.841499258E0
1.271480988E1,3.096473448E-1,-4.426646596E0,-9.605339851E0,1.058081449E1
1.272480487E1,-7.070950180E-1,-6.116462392E0,-1.116116992E1,1.274687450E1
1.273479887E1,-1.873277887E0,-7.417258544E0,-1.235296110E1,1.452998769E1
1.274479387E1,-3.088295825E0,-8.439624320E0,-1.348866346E1,1.620829639E1
1.275478888E1,-4.142566056E0,-9.202039261E0,-1.467593358E1,1.781071045E1
1.276478288E1,-4.849329829E0,-9.565248417E0,-1.578277759E1,1.908156298E1
1.277477788E1,-5.461170196E0,-9.596566104E0,-1.645072258E1,1.981274171E1
1.278477188E1,-5.927120193E0,-9.396505374E0,-1.661083104E1,1.998361266E1
1.279476687E1,-6.073159082E0,-8.952875369E0,-1.657441575E1,1.979263742E1
1.280476087E1,-5.891766758E0,-8.610951832E0,-1.604590113E1,1.913981060E1
1.281475587E1,-5.541457729E0,-8.190002006E0,-1.509951992E1,1.804935978E1
1.282475087E1,-5.051621856E0,-8.012854761E0,-1.420523038E1,1.707376043E1
1.283474488E1,-4.525178320E0,-8.197529712E0,-1.345498701E1,1.639248021E1
1.284473988E1,-3.987558123E0,-8.370830659E0,-1.257117568E1,1.562068769E1
1.285473388E1,-3.582957405E0,-8.591795769E0,-1.127496141E1,1.462126168E1
1.286472887E1,-3.294506948E0,-8.422007829E0,-9.818550968E0,1.334870537E1
1.287472287E1,-2.933420039E0,-7.982013037E0,-8.524364508E0,1.204085859E1
1.288471854E1,-2.622448738E0,-7.444177955E0,-7.519011791E0,1.090085139E1
1.289471354E1,-2.563897937E0,-6.687369325E0,-6.994520640E0,1.001088408E1
1.290470754E1,-2.429351750E0,-5.840931065E0,-6.915643455E0,9.372531677E0
1.291470254E1,-2.209113449E0,-5.516742718E0,-7.190931537E0,9.328672404E0
1.292469654E1,-2.156521837E0,-4.874446252E0,-7.704011262E0,9.368169630E0
1.293469154E1,-2.101049595E0,-4.511304047E0,-8.138374016E0,9.539360839E0
1.294468554E1,-2.051346508E0,-4.077485669E0,-8.271050847E0,9.446914522E0
1.295468054E1,-1.730389332E0,-3.538588732E0,-8.194960445E0,9.092482288E0
1.296467554E1,-1.458635599E0,-2.874189206E0,-7.733992276E0,8.378736058E0
1.297466954E1,-1.089578132E0,-2.065667216E0,-7.147880242E0,7.519730947E0
1.298466454E1,-9.443321984E-1,-1.162089380E0,-6.370259618E0,6.543884368E0
1.299465854E1,-7.830167279E-1,-8.871366352E-2,-5.382521637E0,5.439901147E0
1.300465354E1,-5.047747783E-1,1.092676059E0,-3.858302790E0,4.041687638E0
1.301464854E1,7.066535532E-2,2.163190587E0,-1.908132994E0,2.885369756E0
1.302464254E1,8.929283023E-1,2.638795799E0,5.985695261E-1,2.849359524E0
1.303463754E1,1.752537854E0,2.323957150E0,4.190795937E0,5.102444155E0
1.304463154E1,2.094217708E0,2.148953201E0,9.275145244E0,9.748439207E0
1.305462654E1,1.587138104E0,2.706364469E0,1.578787987E1,1.609660110E1
1.306462054E1,2.702510350E-1,4.115881995E0,2.265280107E1,2.302526692E1
1.307461554E1,-8.866004455E-1,5.242485500E0,2.879753241E1,2.928425494E1
1.308461054E1,-1.356818326E0,4.938360119E0,3.287033329E1,3.326690799E1
1.309460454E1,-1.434547702E0,4.253708177E0,3.422371111E1,3.451687070E1
1.310459954E1,-1.947554629E0,3.836150613E0,3.393724199E1,3.420884994E1
1.311459354E1,-2.554153259E0,3.544704335E0,3.339815677E1,3.368271817E1
1.312458854E1,-2.613941039E0,3.432275242E0,3.311549067E1,3.339534284E1
1.313458254E1,-2.451234663E0,3.613350647E0,3.181251351E1,3.211075941E1
1.314457754E1,-2.416622362E0,3.533889033E0,2.870985926E1,2.902730532E1
1.315457254E1,-2.329411140E0,3.429122131E0,2.412616844E1,2.447972709E1
1.316456654E1,-1.503246054E0,3.385843672E0,1.899251073E1,1.935043023E1
1.317456154E1,-1.426298889E-1,3.297217425E0,1.391410570E1,1.430015117E1
1.318455554E1,1.346523718E0,3.375889372E0,9.334323159E0,1.001695283E1
1.319455054E1,2.588749480E0,3.339838949E0,5.415570685E0,6.869101391E0
1.320454454E1,3.363051226E0,2.798172771E0,2.128472452E0,4.865211134E0
1.321453954E1,3.592643318E0,1.794652279E0,-7.407743955E-1,4.083700468E0
1.322453454E1,3.451338627E0,2.700407910E-1,-3.376851824E0,4.836092285E0
1.323452854E1,3.299310143E0,-1.225429343E0,-6.028450686E0,6.980640527E0
1.324452354E1,3.398880039E0,-2.788563457E0,-8.774814788E0,9.814573156E0
1.325451754E1,3.547496381E0,-4.299674016E0,-1.128431462E1,1.258601142E1
1.326451254E1,3.467173764E0,-5.346098161E0,-1.326059398E1,1.471208389E1
1.327450654E1,3.142488989E0,-5.982296859E0,-1.474502896E1,1.621970998E1
1.328450154E1,2.675493217E0,-6.256146526E0,-1.584282733E1,1.724218116E1
1.329449654E1,2.275283173E0,-6.750363718E0,-1.677381399E1,1.822375262E1
1.330449054E1,1.841266574E0,-6.830988051E0,-1.756670578E1,1.893784076E1
1.331448554E1,1.621308355E0,-6.887763346E0,-1.825126973E1,1.957495265E1
1.332447954E1,1.462921316E0,-6.653653110E0,-1.867339660E1,1.987729808E1
1.333447454E1,1.307807695E0,-6.111270649E0,-1.860865155E1,1.963007647E1
1.334446854E1,1.316999079E0,-5.563878293E0,-1.805069854E1,1.893459653E1
1.335446354E1,1.400847421E0,-5.137164282E0,-1.718872422E1,1.799458448E1
1.336445854E1,1.564102120E0,-5.026380011E0,-1.610144266E1,1.694011119E1
1.337445254E1,1.819463330E0,-5.001469703E0,-1.482335943E1,1.574982955E1
1.338444754E1,1.935986790E0,-4.950029408E0,-1.342408447E1,1.443803587E1
1.339444154E1,1.952050846E0,-4.874356497E0,-1.193129733E1,1.303555560E1
1.340443654E1,2.119746798E0,-4.791839128E0,-1.072337485E1,1.193506669E1
1.341443154E1,2.138576148E0,-4.684973660E0,-9.764824412E0,1.103966856E1
1.342442554E1,1.892180327E0,-4.427225471E0,-8.938880643E0,1.015304185E1
1.343442054E1,1.496287283E0,-3.972430499E0,-8.224094782E0,9.254988638E0
1.344441454E1,1.348952359E0,-3.670533200E0,-7.713132918E0,8.647826655E0
1.345440954E1,1.227275894E0,-3.349256474E0,-7.465950063E0,8.274305735E0
1.346440354E1,9.848962337E-1,-2.899498587E0,-7.217512395E0,7.840254958E0
1.347439854E1,9.176706491E-1,-2.512310292E0,-6.947039495E0,7.444137301E0
1.348439354E1,9.622428046E-1,-1.992589299E0,-6.601516997E0,6.962495960E0
1.349438754E1,9.598796524E-1,-1.441879818E0,-6.147781833E0,6.387143949E0
1.350438254E1,9.998009326E-1,-8.019108358E-1,-5.438740861E0,5.587715549E0
1.351437654E1,1.270139347E0,-7.510499999E-2,-4.399257946E0,4.579559498E0
1.352437154E1,1.483235128E0,5.952915770E-1,-2.940574107E0,3.346839492E0
1.353436554E1,1.637910939E0,1.342965979E0,-1.017431311E0,2.349782189E0
1.354436054E1,1.619348660E0,1.869236146E0,1.619410933E0,2.956150474E0
1.355435554E1,1.079204805E0,2.473761353E0,4.971541314E0,5.656889718E0
1.356434954E1,1.487058038E-1,2.457220750E0,8.842741308E0,9.179004361E0
1.357434454E1,-3.538487868E-1,1.920647351E0,1.328239942E1,1.342520874E1
1.358433854E1,-4.372090320E-1,1.966718878E0,1.803672954E1,1.814890485E1
1.359433354E1,-2.713016335E-1,2.403631749E0,2.251302455E1,2.264259977E1
1.360432854E1,-5.699555185E-2,2.231201891E0,2.631866147E1,2.641313029E1
1.361432254E1,1.024771138E-1,1.752650998E0,2.900551085E1,2.905859506E1
1.362431754E1,1.421786117E-2,1.439626594E0,3.040042028E1,3.043449162E1
1.363431154E1,-4.183959446E-1,1.281449616E0,3.187072137E1,3.189921706E1
1.364430654E1,-1.325250816E0,1.787736046E0,3.322299524E1,3.329744288E1
1.365430054E1,-1.708303814E0,2.709185458E0,3.275553607E1,3.291174762E1
1.366429554E1,-2.193731325E0,3.382372180E0,3.003659951E1,3.030594345E1
1.367429054E1,-2.690968458E0,3.832312501E0,2.583491664E1,2.625587264E1
1.368428454E1,-2.718691569E0,4.425977967E0,2.112621936E1,2.175540644E1
1.369427954E1,-2.229604870E0,5.114650748E0,1.646640481E1,1.738600810E1
1.370427354E1,-1.303870472E0,5.204378026E0,1.232526635E1,1.344238891E1
1.371426854E1,-1.321709742E-1,4.574859772E0,8.779218326E0,9.900580060E0
1.372426254E1,7.693354127E-1,3.596554228E0,5.670478297E0,6.758801921E0
1.373425754E1,1.218534599E0,2.281708970E0,2.718445401E0,3.752461565E0
1.374425254E1,1.318230211E0,7.721028998E-1,-3.202496624E-1,1.560907948E0
1.375424654E1,1.478148196E0,-9.027802759E-1,-3.475114283E0,3.882828041E0
1.376424154E1,1.587858188E0,-2.645836431E0,-6.312748743E0,7.026559666E0
1.377423554E1,1.585658904E0,-4.258721287E0,-8.765479124E0,9.873431290E0
1.378423054E1,1.558810536E0,-5.674451480E0,-1.079978860E1,1.229897246E1
1.379422554E1,1.503315636E0,-6.727186525E0,-1.250198441E1,1.427636546E1
1.380421954E1,1.325252717E0,-7.357549117E0,-1.406341202E1,1.592700164E1
1.381421454E1,9.330542350E-1,-7.624368092E0,-1.531924893E1,1.713712247E1
1.382420854E1,5.392497426E-1,-7.615797243E0,-1.624356157E1,1.794838295E1
1.383420354E1,1.657638860E-1,-7.406851085E0,-1.680970420E1,1.836995035E1
1.384419754E1,-1.109129832E-1,-7.206762289E0,-1.702271943E1,1.848574319E1
1.385419254E1,-5.201843843E-2,-7.023539786E0,-1.708692069E1,1.847418945E1
1.386418754E1,1.129642961E-1,-7.030807875E0,-1.691844370E1,1.832153807E1
1.387418154E1,2.365781991E-1,-7.076672266E0,-1.642147247E1,1.788295327E1
1.388417675E1,4.815816513E-1,-7.204753770E0,-1.560399547E1,1.719375097E1
1.389417075E1,6.913592836E-1,-7.313295050E0,-1.455152588E1,1.630058796E1
1.390416575E1,7.431390095E-1,-7.341065231E0,-1.338767269E1,1.528637545E1
1.391415975E1,5.531008463E-1,-7.344484098E0,-1.213763271E1,1.419751721E1
1.392415475E1,2.308705857E-1,-7.256327966E0,-1.091265156E1,1.310700426E1
1.393414975E1,-1.506794583E-2,-6.994156358E0,-9.891879730E0,1.211477341E1
1.394414375E1,-2.261615306E-2,-6.595817716E0,-9.031611051E0,1.118370784E1
1.395413875E1,3.412873596E-3,-5.969090922E0,-8.436774972E0,1.033485510E1
1.396413275E1,-1.046924594E-1,-5.328387530E0,-8.221515575E0,9.797754464E0
1.397412775E1,-2.446176821E-1,-4.715101731E0,-8.107587841E0,9.382164076E0
1.398412275E1,-9.669160455E-2,-4.101101696E0,-8.126998258E0,9.103652293E0
1.399411675E1,5.604483113E-2,-3.584764194E0,-8.205745050E0,8.954771196E0
1.400411175E1,1.401187290E-1,-3.305524564E0,-8.037355764E0,8.691674958E0
1.401410575E1,1.560281257E-1,-3.008952909E0,-7.644060929E0,8.216435351E0
1.402410075E1,1.249753176E-1,-2.501347055E0,-7.133878500E0,7.560726048E0
1.403409475E1,1.881862038E-1,-2.032459416E0,-6.502299103E0,6.815144822E0
1.404408975E1,2.739006843E-1,-1.398979089E0,-5.683680140E0,5.859725592E0
1.405408475E1,5.049420087E-1,-7.073297837E-1,-4.663122908E0,4.743416186E0
1.406407875E1,8.975784467E-1,5.501762152E-2,-3.326985599E0,3.446375950E0
1.407407375E1,1.138349392E0,1.038019357E0,-1.397902617E0,2.080253650E0
1.408406775E1,1.184829567E0,1.951061204E0,1.420838905E0,2.688725371E0
1.409406275E1,1.037062387E0,2.337687582E0,5.411468863E0,5.985338493E0
1.410405675E1,9.186202370E-1,2.510792355E0,1.037147771E1,1.071053180E1
1.411405175E1,8.366163265E-1,3.220251987E0,1.559535211E1,1.594631485E1
1.412404675E1,8.256041922E-1,3.969303993E0,2.079070847E1,2.118231704E1
1.413404075E1,1.129872245E0,4.157917044E0,2.528125782E1,2.564579659E1
1.414403575E1,1.868592952E0,3.764198871E0,2.788373890E1,2.819864763E1
1.415402975E1,2.056556962E0,4.423873262E0,2.913623121E1,2.954183559E1
1.416402475E1,2.085408878E0,5.589830575E0,2.988550745E1,3.047521439E1
1.417401875E1,2.706473812E0,6.080763971E0,3.074708299E1,3.145924035E1
1.418401375E1,2.900694635E0,6.991780635E0,3.079754212E1,3.171415498E1
1.419400875E1,2.037970125E0,7.297218715E0,2.938668617E1,3.034765307E1
1.420400275E1,6.655119592E-1,7.321653644E0,2.611339379E1,2.712856158E1
1.421399775E1,-2.182722480E-1,7.452431885E0,2.180673235E1,2.304604000E1
1.422399175E1,-4.862033636E-1,7.958502553E0,1.715777725E1,1.891992275E1
1.423398675E1,-6.811684638E-2,8.142950631E0,1.297595387E1,1.531951904E1
1.424398075E1,7.978713600E-1,7.744314365E0,9.322304792E0,1.214563174E1
1.425397575E1,1.786441034E0,6.626138452E0,6.073916881E0,9.164581203E0
1.426397075E1,2.476008731E0,5.049270106E0,3.348522064E0,6.545101057E0
1.427396475E1,2.433437492E0,3.083144135E0,7.484646535E-1,3.998449090E0
1.428395975E1,1.694059412E0,8.981171215E-1,-1.886229324E0,2.689667771E0
1.429395375E1,8.358670789E-1,-1.147548816E0,-4.410108039E0,4.632989853E0
1.430394875E1,3.207843903E-1,-3.460973961E0,-6.744048141E0,7.587056657E0
1.431394275E1,1.436769059E-1,-5.523900880E0,-8.935766416E0,1.050628600E1
1.432393775E1,4.201528502E-1,-7.297098262E0,-1.099045578E1,1.319902609E1
1.433393275E1,8.352018119E-1,-8.325674951E0,-1.302559673E1,1.548162122E1
1.434392675E1,1.008338891E0,-8.711230996E0,-1.461714334E1,1.704591365E1
1.435392175E1,8.025345875E-1,-8.446424047E0,-1.586272891E1,1.798922759E1
1.436391575E1,5.451043403E-1,-7.700331609E0,-1.677277084E1,1.846396727E1
1.437391075E1,6.499405316E-1,-6.779465311E0,-1.744137773E1,1.872392133E1
1.438390475E1,1.105077565E0,-5.854020642E0,-1.794762382E1,1.891052497E1
1.439389975E1,1.767423696E0,-5.075262149E0,-1.805552834E1,1.883836978E1
1.440389475E1,2.456477276E0,-4.607955013E0,-1.759554659E1,1.835404015E1
1.441388875E1,2.937900760E0,-4.174629848E0,-1.660036218E1,1.736752198E1
1.442388375E1,3.221913473E0,-3.887649381E0,-1.529230730E1,1.610432260E1
1.443387775E1,3.455935416E0,-3.775877222E0,-1.389282768E1,1.480578939E1
1.444387275E1,3.575693701E0,-3.855244404E0,-1.266466681E1,1.371285092E1
1.445386675E1,3.407095085E0,-4.192890410E0,-1.160376789E1,1.279984594E1
1.446386175E1,3.060169840E0,-4.451914754E0,-1.078759365E1,1.206467410E1
1.447385675E1,2.740491743E0,-4.610646194E0,-9.953160889E0,1.130635949E1
1.448385075E1,2.399352464E0,-4.612456492E0,-9.167719613E0,1.053938945E1
1.449384575E1,1.984816011E0,-4.374779162E0,-8.497146304E0,9.761131217E0
1.450383975E1,1.811818388E0,-3.947643860E0,-7.875843973E0,8.994192360E0
1.451383475E1,1.991286686E0,-3.435792927E0,-7.460581149E0,8.451636930E0
1.452382875E1,2.032965201E0,-3.039701369E0,-7.175652178E0,8.053739262E0
1.453382375E1,1.889040226E0,-2.337532923E0,-6.855367432E0,7.485225165E0
1.454381875E1,1.765427603E0,-2.029282916E0,-6.548082801E0,7.078990899E0
1.455381275E1,1.661082285E0,-1.794098255E0,-6.123027061E0,6.593136074E0
1.456380775E1,1.578470045E0,-1.510103084E0,-5.368690048E0,5.796103160E0
1.457380175E1,1.512067017E0,-1.115023021E0,-4.063355287E0,4.476659379E0
1.458379675E1,1.225367363E0,-6.460285981E-1,-2.385675096E0,2.758681530E0
1.459379075E1,8.037595792E-1,-1.206458198E-1,-4.114334822E-1,9.109678289E-1
1.460378575E1,7.336609653E-1,2.720132761E-1,1.791262355E0,1.954704699E0
1.461378075E1,7.437291397E-1,1.163165706E0,4.181389521E0,4.403419787E0
1.462377475E1,4.258174865E-1,1.736547766E0,6.978403959E0,7.203821242E0
1.463376975E1,-7.108265649E-1,1.798724718E0,1.044275878E1,1.062035291E1
1.464376375E1,-2.717204037E0,1.855269779E0,1.479832048E1,1.515966731E1
1.465375875E1,-4.456723212E0,1.979944842E0,1.892138871E1,1.953974191E1
1.466375275E1,-5.317987672E0,1.167257661E0,2.211173949E1,2.277218713E1
1.467374775E1,-5.445157011E0,3.420008661E-1,2.396782116E1,2.458095097E1
1.468374275E1,-5.660816942E0,3.184641420E-1,2.496509419E1,2.560082413E1
1.469373675E1,-6.369793594E0,8.465669719E-1,2.612953211E1,2.690805445E1
1.470373175E1,-6.845427750E0,1.944721653E0,2.830609499E1,2.918692921E1
1.471372575E1,-6.809169166E0,2.978862552E0,3.049624913E1,3.138884544E1
1.472372075E1,-6.335424830E0,3.690514598E0,3.090771770E1,3.176546110E1
1.473371475E1,-5.485053733E0,4.136167740E0,2.907802802E1,2.987851087E1
1.474370975E1,-4.358613365E0,4.643511931E0,2.570958976E1,2.648665171E1
1.475370475E1,-3.334698369E0,5.217581039E0,2.168755440E1,2.255423200E1
1.476369875E1,-2.357858868E0,5.388102804E0,1.736735666E1,1.833619992E1
1.477369375E1,-1.251675155E0,4.967410841E0,1.315400509E1,1.411629240E1
1.478368775E1,-2.830628327E-1,3.771889129E0,9.251024310E0,9.994434599E0
1.479368275E1,3.382533856E-1,2.181792773E0,5.506746318E0,5.932865250E0
1.480367675E1,8.750738293E-1,3.895491081E-1,1.912079864E0,2.138586477E0
1.481367175E1,1.497071833E0,-1.592423402E0,-1.622063230E0,2.721787186E0
1.482366675E1,1.930419510E0,-3.481804959E0,-4.917847502E0,6.327298738E0
1.483366075E1,2.307592255E0,-5.195568026E0,-7.751999361E0,9.613137013E0
1.484365575E1,2.717129485E0,-6.548355866E0,-9.842709324E0,1.213023842E1
1.485364975E1,3.037192329E0,-7.160020232E0,-1.176895758E1,1.410669307E1
1.486364475E1,3.285280626E0,-7.257434844E0,-1.362978952E1,1.578716541E1
1.487363875E1,3.793516810E0,-6.950995136E0,-1.529371414E1,1.722221807E1
1.488362962E1,4.605119698E0,-6.253025283E0,-1.655952523E1,1.829003358E1
1.489362362E1,5.232028340E0,-5.375314359E0,-1.731077783E1,1.886613777E1
1.490361862E1,5.713696822E0,-4.454986881E0,-1.771490697E1,1.913925726E1
1.491361363E1,6.151969024E0,-3.543279369E0,-1.785069335E1,1.921064301E1
1.492360763E1,6.427215006E0,-2.791249668E0,-1.765044259E1,1.899047896E1
1.493360263E1,6.687439492E0,-2.470358566E0,-1.691686027E1,1.835768721E1
1.494359663E1,7.020996832E0,-2.512296551E0,-1.584850380E1,1.751516781E1
1.495359162E1,7.079353214E0,-2.613038229E0,-1.453602608E1,1.637807269E1
1.496358562E1,6.627696151E0,-2.730529842E0,-1.307108105E1,1.490755879E1
1.497358062E1,5.775593693E0,-2.991841032E0,-1.161334913E1,1.331084045E1
1.498357563E1,4.861794339E0,-3.418388105E0,-1.052731537E1,1.208911867E1
1.499356963E1,4.189153747E0,-4.038583558E0,-9.627947525E0,1.124973510E1
1.500356463E1,3.613962851E0,-4.343987140E0,-8.937391357E0,1.057392624E1
1.501355863E1,3.194075464E0,-4.372537340E0,-8.391913379E0,9.987262439E0
1.502355362E1,2.868937237E0,-4.195529258E0,-8.047651541E0,9.518296169E0
1.503354762E1,2.709472264E0,-3.881080034E0,-7.833127724E0,9.152153414E0
1.504354262E1,2.709910513E0,-3.379298884E0,-7.739838907E0,8.869519842E0
1.505353762E1,2.637015907E0,-2.844863373E0,-7.604795122E0,8.536978936E0
1.506353163E1,2.506541429E0,-2.281891550E0,-7.446066021E0,8.181300518E0
1.507352663E1,2.379493420E0,-1.791075537E0,-7.176491253E0,7.769939975E0
1.508352063E1,2.166448071E0,-1.413446416E0,-6.757525973E0,7.235709038E0
1.509351562E1,1.827628528E0,-9.707112540E-1,-6.141859773E0,6.481122422E0
1.510350962E1,1.429265912E0,-5.505569420E-1,-5.282913149E0,5.500462284E0
1.511350462E1,9.577715850E-1,-7.407969072E-2,-4.266623214E0,4.373429760E0
1.512349962E1,6.653941378E-1,5.159986550E-1,-3.143517514E0,3.254336542E0
1.513349363E1,5.110323223E-1,1.183734237E0,-1.582799177E0,2.041478389E0
1.514348863E1,1.903894347E-1,1.930924125E0,3.371013379E-1,1.969353555E0
1.515348263E1,-5.868645698E-1,2.340693051E0,2.752435266E0,3.660485470E0
1.516347762E1,-1.546778575E0,2.014188914E0,5.875242527E0,6.400621508E0
1.517347162E1,-2.581332872E0,1.758473801E0,9.465731730E0,9.967727258E0
1.518346662E1,-3.542180092E0,1.386370738E0,1.347666965E1,1.400320280E1
1.519346162E1,-4.442608911E0,8.835912491E-1,1.744711853E1,1.802552225E1
1.520345563E1,-5.121673838E0,8.263232535E-1,2.092832152E1,2.156174841E1
1.521345063E1,-5.207509795E0,8.014229587E-1,2.336774013E1,2.395436736E1
1.522344463E1,-5.075517672E0,1.393525537E0,2.534343244E1,2.588421064E1
1.523343963E1,-5.019368615E0,2.616084044E0,2.765094254E1,2.822432604E1
1.524343362E1,-5.302187326E0,3.877676954E0,2.945574178E1,3.017930239E1
1.525342862E1,-5.783968075E0,5.065665699E0,2.982290716E1,3.079806889E1
1.526342262E1,-6.265192169E0,5.339741653E0,2.850507106E1,2.966992669E1
1.527341763E1,-6.794506688E0,5.081935576E0,2.579779618E1,2.715727670E1
1.528341263E1,-7.228939608E0,4.776953871E0,2.205717328E1,2.369801150E1
1.529340663E1,-6.827833478E0,4.441274868E0,1.819813257E1,1.993780985E1
1.530340163E1,-5.552163981E0,4.102921349E0,1.478412344E1,1.631658036E1
1.531339562E1,-4.086509677E0,3.592335462E0,1.163787470E1,1.284696707E1
1.532339062E1,-2.487242401E0,2.669143433E0,8.459941640E0,9.213105556E0
1.533338462E1,-6.833149767E-1,1.360092912E0,5.302360988E0,5.516502890E0
1.534337962E1,6.829233594E-1,1.393274546E-2,1.874663531E0,1.995229759E0
1.535337463E1,1.634062009E0,-1.421884095E0,-1.786762923E0,2.807923569E0
1.536336863E1,2.163211052E0,-2.866423227E0,-5.267737285E0,6.375336876E0
1.537336363E1,2.352633650E0,-4.085812396E0,-8.240065282E0,9.493546433E0
1.538335762E1,2.544468516E0,-5.183892306E0,-1.067401031E1,1.213596126E1
1.539335262E1,2.901422321E0,-5.955013166E0,-1.264116802E1,1.427163489E1
1.540334662E1,3.508873475E0,-6.227142583E0,-1.423664397E1,1.593020807E1
1.541334162E1,4.192338725E0,-6.155265099E0,-1.540702031E1,1.711254707E1
1.542333563E1,4.765215878E0,-5.507238069E0,-1.622048729E1,1.778035887E1
1.543333063E1,5.155659610E0,-4.537704225E0,-1.673505630E1,1.808960185E1
1.544332563E1,5.526760168E0,-3.639028987E0,-1.691747072E1,1.816558354E1
1.545331962E1,5.930669453E0,-2.792969042E0,-1.688615771E1,1.811396805E1
1.546331462E1,6.296722110E0,-2.174132335E0,-1.662204483E1,1.790720344E1
1.547330862E1,6.558518912E0,-1.881614263E0,-1.610817163E1,1.749365130E1
1.548330362E1,6.763660871E0,-1.882787799E0,-1.534889314E1,1.687840392E1
1.549329763E1,6.839912657E0,-2.119430902E0,-1.441963141E1,1.609975660E1
1.550329263E1,6.603904999E0,-2.332916254E0,-1.334849635E1,1.507436281E1
1.551328763E1,6.112320809E0,-2.630973979E0,-1.219769999E1,1.389483266E1
1.552328163E1,5.559524456E0,-2.934642399E0,-1.113465045E1,1.278674622E1
1.553327662E1,5.133517374E0,-3.480118038E0,-1.020425436E1,1.194114857E1
1.554327062E1,4.725228524E0,-3.779605114E0,-9.484814118E0,1.125055102E1
1.555326562E1,4.306344227E0,-3.782968141E0,-8.816284411E0,1.051581283E1
1.556325963E1,4.036170705E0,-3.683460517E0,-8.196849681E0,9.851238502E0
1.557325463E1,3.797964202E0,-3.420268570E0,-7.594981155E0,9.154589446E0
1.558324963E1,3.413535208E0,-3.048280697E0,-7.097459702E0,8.445008706E0
1.559324363E1,3.046831757E0,-2.683724635E0,-6.731926863E0,7.861577510E0
1.560323862E1,2.741556521E0,-2.331142647E0,-6.437575103E0,7.375142806E0
1.561323262E1,2.455020442E0,-1.996742869E0,-6.232277607E0,6.989663199E0
1.562322762E1,2.156642290E0,-1.682704996E0,-5.945588624E0,6.544663945E0
1.563322162E1,1.958525468E0,-1.446667518E0,-5.399694909E0,5.923290811E0
1.564321663E1,1.589631649E0,-1.127016172E0,-4.599723887E0,4.995453340E0
1.565321163E1,1.293405856E0,-8.980349681E-1,-3.307626638E0,3.663298990E0
1.566320563E1,1.132412129E0,-7.602193111E-1,-1.632323924E0,2.127151152E0
1.567320062E1,7.017939323E-1,-6.326766273E-1,9.445826054E-1,1.336050424E0
1.568319462E1,-7.152898908E-2,-3.450424415E-1,4.127045499E0,4.142061713E0
1.569318962E1,-1.351645001E0,-3.285357517E-1,7.330311032E0,7.461121884E0
1.570318362E1,-3.275757266E0,-1.879970464E-1,1.052544309E1,1.102501160E1
1.571317863E1,-5.461694691E0,1.554488128E-1,1.400102456E1,1.502940325E1
1.572317263E1,-7.266570534E0,3.490670800E-2,1.798578743E1,1.939826835E1
1.573316763E1,-8.510282659E0,-5.826705082E-1,2.188021548E1,2.348421268E1
1.574316263E1,-9.369689459E0,-1.028384169E0,2.473302522E1,2.646830541E1
1.575315662E1,-1.000342122E1,-9.446891709E-1,2.625105830E1,2.810834281E1
1.576315162E1,-1.073985815E1,-1.792029803E-1,2.721423271E1,2.925732607E1
1.577314562E1,-1.142533075E1,6.267063278E-1,2.812880039E1,3.036709329E1
1.578314063E1,-1.132181632E1,1.246233298E0,2.824605110E1,3.045613279E1
1.579313463E1,-1.047654282E1,1.552575504E0,2.700925974E1,2.901152446E1
1.580312963E1,-9.153144844E0,2.090346559E0,2.408932630E1,2.585430817E1
1.581312463E1,-7.783517607E0,2.989631954E0,2.034479980E1,2.198708540E1
1.582311862E1,-6.215437626E0,3.894937350E0,1.648730510E1,1.804531605E1
1.583311362E1,-4.394904402E0,4.555922980E0,1.303321682E1,1.448918077E1
1.584310762E1,-2.705679175E0,4.617973632E0,9.837798833E0,1.119949401E1
1.585310263E1,-1.472371878E0,3.918230026E0,6.863114408E0,8.038827332E0
1.586309663E1,-5.961557955E-1,2.698509904E0,4.251511086E0,5.070769562E0
1.587309163E1,8.484660745E-2,1.169170066E0,2.067520491E0,2.376720128E0
1.588308925E1,6.999950364E-1,-2.655567075E-1,-1.447086471E-1,7.625313164E-1
1.589308425E1,1.163381176E0,-1.457721095E0,-2.372498980E0,3.017806813E0
1.590307925E1,1.373482890E0,-2.612266397E0,-4.524577226E0,5.402054244E0
1.591307325E1,1.356490004E0,-3.644906023E0,-6.614272113E0,7.672939504E0
1.592306825E1,1.383167049E0,-4.604240862E0,-8.500748189E0,9.766007617E0
1.593306225E1,1.540459489E0,-5.565427220E0,-1.004694321E1,1.158827267E1
1.594305725E1,1.703363940E0,-6.295584826E0,-1.144632927E1,1.317400056E1
1.595305125E1,1.676296155E0,-6.735086113E0,-1.258096743E1,1.436844095E1
1.596304625E1,1.602753970E0,-6.813863311E0,-1.373741103E1,1.541797702E1
1.597304125E1,1.555935899E0,-6.726491876E0,-1.475688478E1,1.629209249E1
1.598303525E1,1.602368492E0,-6.518692356E0,-1.552722971E1,1.691614014E1
1.599303025E1,1.709112191E0,-5.936734770E0,-1.604333537E1,1.719169840E1
1.600302425E1,2.024504279E0,-5.359908115E0,-1.639875954E1,1.737085338E1
1.601301925E1,2.460329422E0,-4.905682370E0,-1.654866110E1,1.743493977E1
1.602301325E1,2.782049367E0,-4.664377720E0,-1.646526577E1,1.733785440E1
1.603300825E1,2.943523443E0,-4.716429049E0,-1.603813719E1,1.697441834E1
1.604300225E1,2.985484816E0,-4.858254727E0,-1.522741256E1,1.626006924E1
1.605299725E1,2.884014575E0,-4.978810573E0,-1.418429618E1,1.530687274E1
1.606299225E1,2.599617700E0,-5.094922242E0,-1.293728506E1,1.414530274E1
1.607298625E1,2.246855618E0,-5.085816958E0,-1.168775846E1,1.294285873E1
1.608298125E1,1.947322202E0,-5.087103345E0,-1.044454452E1,1.177960927E1
1.609297525E1,1.734613507E0,-5.015083190E0,-9.263081269E0,1.067542121E1
1.610297025E1,1.598853585E0,-4.899137289E0,-8.218111911E0,9.700270220E0
1.611296425E1,1.579770027E0,-4.739649512E0,-7.290630657E0,8.838169845E0
1.612295925E1,1.531145459E0,-4.273736645E0,-6.471760265E0,7.905245869E0
1.613295425E1,1.447222711E0,-3.687800320E0,-5.935051357E0,7.135766209E0
1.614294825E1,1.376046163E0,-3.224511976E0,-5.492751008E0,6.516233126E0
1.615294325E1,1.206975969E0,-2.644781886E0,-5.032781543E0,5.812103945E0
1.616293725E1,1.152394550E0,-2.010554869E0,-4.621404194E0,5.169885956E0
1.617293225E1,1.232526986E0,-1.368022175E0,-4.217600743E0,4.602039056E0
1.618292625E1,1.230937420E0,-7.304009964E-1,-3.795620053E0,4.056528582E0
1.619292125E1,1.138361817E0,-1.934418274E-1,-3.184770205E0,3.387631713E0
1.620291525E1,1.034461619E0,4.855855322E-1,-2.621635391E0,2.859873471E0
1.621291025E1,8.757409966E-1,1.050705623E0,-1.877888855E0,2.323224301E0
1.622290525E1,5.777474450E-1,1.566765966E0,-5.482682687E-1,1.757596596E0
1.623289925E1,1.053478226E-2,2.392278210E0,1.279463171E0,2.712956325E0
1.624289425E1,-8.055121359E-1,3.133869900E0,3.949921643E0,5.106062214E0
1.625288825E1,-1.712004371E0,3.386728941E0,7.462107273E0,8.371614948E0
1.626288325E1,-2.662850075E0,3.438499019E0,1.145184670E1,1.224985056E1
1.627287725E1,-3.401636417E0,3.206786141E0,1.547641974E1,1.616707072E1
1.628287225E1,-4.035291283E0,2.179620386E0,1.951791580E1,2.004952264E1
1.629286625E1,-4.745946379E0,1.350419425E0,2.277274617E1,2.330119327E1
1.630286125E1,-5.659198433E0,1.054943100E0,2.535095196E1,2.599634968E1
1.631285625E1,-5.985570130E0,7.462314557E-1,2.815449773E1,2.879339601E1
1.632285025E1,-5.468472784E0,4.677069760E-1,3.096169919E1,3.144439157E1
1.633284525E1,-4.551507747E0,8.509825699E-2,3.274007370E1,3.305504334E1
1.634283925E1,-3.809750142E0,3.640483774E-2,3.245866358E1,3.268149879E1
1.635283425E1,-3.617832538E0,5.549451312E-1,2.995817197E1,3.018093346E1
1.636282825E1,-3.756606261E0,1.094447912E0,2.595002727E1,2.624335767E1
1.637282325E1,-3.570877057E0,1.335244146E0,2.138029258E1,2.171752635E1
1.638281725E1,-2.837377183E0,1.456844890E0,1.681775815E1,1.711753766E1
1.639281225E1,-1.833893382E0,1.172960011E0,1.254377797E1,1.273127511E1
1.640280725E1,-8.107987498E-1,7.180300422E-1,8.595596459E0,8.663558174E0
1.641280125E1,4.307205230E-2,3.448797427E-1,4.845436168E0,4.857885229E0
1.642279625E1,7.006290208E-1,-2.229965790E-1,1.133359963E0,1.350967544E0
1.643279025E1,1.398533970E0,-8.455282871E-1,-2.678527629E0,3.137726185E0
1.644278525E1,2.102675559E0,-1.838308614E0,-6.025419490E0,6.641257644E0
1.645277925E1,2.630760555E0,-2.796459537E0,-8.763766474E0,9.567898926E0
1.646277425E1,2.907628848E0,-3.409949403E0,-1.087470313E1,1.176185481E1
1.647276825E1,3.065068053E0,-3.936214600E0,-1.267472169E1,1.362119662E1
1.648276325E1,3.091625229E0,-4.022298478E0,-1.417723275E1,1.505758812E1
1.649275725E1,3.055414300E0,-3.797460757E0,-1.533951771E1,1.609524987E1
1.650275225E1,2.971477519E0,-3.685524584E0,-1.617178466E1,1.685050116E1
1.651274725E1,2.854259264E0,-3.788762439E0,-1.651595879E1,1.718366700E1
1.652274125E1,2.814077490E0,-3.862390286E0,-1.669786333E1,1.736823914E1
1.653273625E1,2.854506893E0,-3.759262651E0,-1.685819866E1,1.750654528E1
1.654273025E1,2.949525610E0,-3.702168391E0,-1.713338500E1,1.777522528E1
1.655272525E1,3.200299240E0,-3.685067039E0,-1.733462980E1,1.800863750E1
1.656271925E1,3.398035702E0,-3.758955965E0,-1.728643471E1,1.801380641E1
1.657271425E1,3.552710928E0,-3.805372040E0,-1.696349766E1,1.774437557E1
1.658270825E1,3.478076775E0,-3.853342012E0,-1.636312427E1,1.716674397E1
1.659270325E1,3.247335413E0,-4.005563454E0,-1.557040087E1,1.640204588E1
1.660269825E1,2.944753989E0,-4.188205621E0,-1.473735391E1,1.560135387E1
1.661269225E1,2.554331599E0,-4.332719555E0,-1.369548883E1,1.458984178E1
1.662268725E1,2.163340129E0,-4.429585699E0,-1.260655952E1,1.353612253E1
1.663268125E1,1.842692418E0,-4.447725517E0,-1.148783631E1,1.245584846E1
1.664267625E1,1.676734843E0,-4.279665429E0,-1.046694754E1,1.143170883E1
