Time (s),Linear Acceleration x (m/s^2),Linear Acceleration y (m/s^2),Linear Acceleration z (m/s^2),Absolute acceleration (m/s^2)
0.035476583,-0.016579922,0.005583945,0.028403435,0.033359097
0.045472583,-0.020805243,0.015567609,0.028553708,0.03860729
0.055468583,-0.011320758,0.0200954,0.036786003,0.043418829
0.065464583,-0.010593688,0.010864181,0.027204756,0.031150528
0.075459583,-0.013000087,0.011404026,0.034837711,0.038893703
0.085455583,-0.006033614,0.009274543,0.033041446,0.034844782
0.095451583,-0.019250601,0.00971143,0.018221678,0.028229897
0.105447583,-0.007817298,0.010032781,0.010738412,0.01664573
0.115443583,-0.015883061,0.008390106,0.030646427,0.035522795
0.125438583,-0.013083492,0.010779013,0.028701058,0.033333401
0.135434583,-0.013422535,0.008799767,0.040528806,0.043591105
0.145430583,-0.016046094,0.011358006,0.027808773,0.034055973
0.155426583,-0.020097008,0.013029999,0.021822394,0.032401967
0.165422583,-0.021571941,0.013760974,0.030655198,0.039930617
0.175417583,-0.014557895,0.011688347,0.033797491,0.03861114
0.185413583,-0.0110052,0.001328259,0.036193095,0.037852594
0.195409583,-0.005872468,0.010046567,0.036044576,0.037876521
0.205405583,-0.010198768,0.006998889,0.028412206,0.030987945
0.215401583,-0.019560754,0.008261001,0.03245497,0.038783919
0.225397583,-0.009072659,0.009811135,0.024071817,0.027532234
0.235392583,-0.010742952,0.007215866,0.035748122,0.038018522
0.245388583,-0.012459133,0.013488997,0.037546726,0.041796407
0.255384583,-0.009971924,0.007627419,0.03754848,0.039591731
0.265380583,-0.013718144,0.013187399,0.033357781,0.0384036
0.275376583,-0.015435256,0.005753194,0.026024787,0.030799934
0.285371583,-0.017690134,0.011963622,0.031562101,0.038108205
0.295367583,-0.015003316,0.008319711,0.026171553,0.031293246
0.305363583,-0.006297218,0.006333868,0.024974043,0.026523116
0.315359583,-0.01928806,0.003267095,0.035006111,0.040101508
0.325355583,-0.011556186,0.011661943,0.028720354,0.033081794
0.335350583,-0.014948681,0.011664656,0.037252611,0.04180053
0.345346583,-0.009433308,0.013571534,0.029319693,0.033657366
0.355342583,-0.012753284,0.010313529,0.032461987,0.036370259
0.365338583,-0.014427525,0.002739548,0.026473269,0.030273628
0.375334583,-0.013759325,0.009243068,0.02991494,0.034200248
0.385329583,-0.017662328,0.00413506,0.027371401,0.03283672
0.395325583,-0.01438987,0.009922825,0.027371986,0.032477014
0.405321583,-0.010747534,0.007113229,0.02632358,0.029309357
0.415317583,-0.008110645,0.004481279,0.030513695,0.031889654
0.425313583,-0.016004451,0.004911807,0.032311714,0.036391141
0.435309583,-0.014464193,0.008353186,0.026773231,0.031556212
0.445304583,-0.017820646,0.006547593,0.025725995,0.031973007
0.455300583,-0.016690475,0.008241331,0.031265647,0.036387253
0.465296583,-0.008275286,0.004877345,0.028271872,0.02985913
0.475292583,-0.006533313,0.008710149,0.028422731,0.030436861
0.485288583,-0.014000071,0.012876784,0.031865571,0.037111025
0.495283583,-0.019559781,0.01222979,0.021837596,0.031765286
0.505279583,-0.020361654,0.005369882,0.026626466,0.033947036
0.515275583,-0.022665206,0.002139606,0.020640087,0.030729508
0.525271583,-0.01826836,0.007767323,0.018695303,0.027268638
0.535267583,-0.017482965,0.012147938,0.02902324,0.035994095
0.545263042,-0.009910629,0.008783422,0.034861684,0.037292172
0.555259042,-0.016605293,0.006871712,0.030972701,0.03580872
0.565255042,-0.013308738,0.000408793,0.027080795,0.030177128
0.575251042,-0.014962819,0.005366949,0.030974455,0.034815327
0.585247042,-0.017012748,0.004085495,0.032472512,0.036886162
0.595242042,-0.005405189,0.001460415,0.034117919,0.034574286
0.605238042,-0.005432794,0.010889242,0.027533369,0.030102778
0.615234042,-0.010880554,0.004141638,0.041155043,0.04277005
0.625230042,-0.016201264,0.002812365,0.032473097,0.036399071
0.635226042,-0.009078876,0.007899844,0.023491189,0.026394497
0.645221042,-0.013529685,0.010067179,0.024689868,0.029899666
0.655217042,-0.015238095,0.007689143,0.030079831,0.03458495
0.665213042,-0.015025019,0.006151581,0.028135632,0.032483949
0.675209042,-0.013101893,0.009779797,0.028434425,0.032799703
0.685205042,-0.013696102,0.003948469,0.030679756,0.033829293
0.695200042,-0.01367428,0.003236105,0.025440066,0.029062954
0.705196042,-0.003013253,0.005663339,0.027984189,0.028710067
0.715192042,-0.004613307,0.004487391,0.033672945,0.034282452
0.725188042,-0.019062142,0.009004465,0.029333142,0.036123107
0.735184042,-0.006782866,0.003121326,0.032476605,0.033323863
0.745179042,-0.013057874,0.003333077,0.03068151,0.033510782
0.755175042,-0.012942588,0.007726036,0.021401979,0.026177221
0.765171042,-0.007025425,0.010425019,0.026790773,0.029593633
0.775167042,-0.020812515,0.011698817,0.031432292,0.039471662
0.785163042,-0.009688475,0.006079953,0.025445913,0.02789851
0.795158042,-0.005779306,0.002592464,0.039517238,0.04002166
0.805154042,-0.016074133,0.000145879,0.032930349,0.03664433
0.815150042,-0.011034788,0.005659657,0.029639536,0.032129431
0.825146042,-0.009094339,0.011984572,0.022005996,0.026657097
0.835142042,-0.013856462,0.00568015,0.013625182,0.020246264
0.845137042,-0.013791978,0.003458738,0.030539423,0.033687355
0.855133042,-0.019044235,0.004436977,0.024103392,0.03103777
0.865129042,-0.011783606,-0.000583698,0.029643629,0.031905154
0.875125042,-0.004801546,0.007633403,0.03308647,0.034293413
0.885120042,-0.011542312,0.002143379,0.029196317,0.031468142
0.895116042,-0.010574708,0.006331831,0.021561608,0.02483585
0.905112042,-0.012147326,0.005093226,0.033087054,0.035612521
0.915108042,-0.012338607,0.010570487,0.037278923,0.040665643
0.925104042,-0.010708879,-0.003500527,0.028746082,0.030875087
0.935099042,-0.011882602,-0.000400333,0.030842308,0.033054568
0.945095042,-0.008610537,0.007509634,0.028898109,0.031074695
0.955091042,-0.016884329,0.005502385,0.028749005,0.03379145
0.965087042,-0.012913544,0.006273304,0.027251533,0.030801948
0.975083042,-0.012279495,0.006628988,0.024555967,0.028244026
0.985078042,-0.004819248,-0.002384239,0.034435422,0.034852662
0.995074042,-0.003994,-0.000492162,0.020514371,0.020905351
1.005070042,-0.005545696,0.00417112,0.032639158,0.033368662
1.015066042,-0.015682214,0.008670197,0.034287488,0.038687672
1.025062042,-0.01002745,0.007524444,0.033839591,0.036087185
1.035057042,-0.011022801,0.002922703,0.038629045,0.040277134
1.045053042,-0.008825943,0.0031215,0.038627876,0.039746117
1.055049042,-0.011916813,-0.001186574,0.031743949,0.033927816
1.065045042,-0.007544566,0.00880788,0.037582394,0.039331102
1.075041042,-0.013373647,0.007282999,0.021416597,0.026278644
1.085036042,-0.011038173,0.00393926,0.034139553,0.036095265
1.095032042,-0.001518938,0.005584904,0.027852627,0.028447621
1.105028042,-0.012415749,0.004928618,0.018871889,0.023121209
1.115024042,-0.016324764,-4.98658E-05,0.024710333,0.029615891
1.125020042,-0.009252081,0.004648673,0.029950023,0.031689353
1.135015042,-0.013092523,0.003743543,0.025909013,0.029269527
1.145011042,-0.009329991,0.007572062,0.022165625,0.025213088
1.155007042,-0.009574404,0.010719828,0.033391694,0.036353668
1.165003042,-0.010556179,-0.002468238,0.030097958,0.031990814
1.174998042,-0.016449067,0.003772477,0.023512239,0.028941817
1.184994042,-0.013958144,-0.003167903,0.027853212,0.0313156
1.194990042,-0.013154892,0.002475117,0.031296637,0.034039049
1.204986042,-0.00803735,0.008611469,0.029051306,0.031348601
1.214982042,-0.005160081,-0.001549275,0.023961305,0.024559536
1.224977042,-0.00531775,0.001403387,0.026955664,0.027511012
1.234973042,-0.005645692,0.004891872,0.029350099,0.030285848
1.244969042,-0.01233784,0.007221247,0.033692241,0.03659967
1.254965042,-0.00989073,0.008561384,0.02261703,0.026127646
1.264961042,-0.010773248,0.002897222,0.031000768,0.032946994
1.274956042,-0.016362967,0.005056617,0.020523727,0.02673087
1.284952042,-0.012268363,0.004561714,0.017080886,0.021519262
1.294948042,-0.00825482,0.001291915,0.034145401,0.035152802
1.304944042,-0.011160622,0.004156685,0.024715011,0.027434819
1.314940042,-0.00272467,0.002158043,0.030254663,0.030453664
1.324935042,-0.006995065,0.004697863,0.027560266,0.028819596
1.334931042,-0.007560267,0.007807531,0.035494353,0.037120941
1.344927042,-0.004367633,0.003558615,0.024716181,0.025350139
1.354923042,-0.009190411,0.00370676,0.032649098,0.034119896
1.364918042,-0.015700313,0.005798236,0.024265945,0.02947805
1.374914042,-0.009293464,0.006517672,0.026958588,0.02925088
1.384910042,-0.007405732,0.007202847,0.027857305,0.029711198
1.394906042,-0.005950319,0.00439284,0.032349136,0.03318388
1.404902042,-0.002629146,0.009554789,0.027857305,0.029567479
1.414897042,-0.013826605,0.00500962,0.029504465,0.032966419
1.424893042,-0.012551405,0.005655208,0.035339987,0.03792669
1.434889042,-0.007656541,0.005847819,0.020070568,0.022263137
1.444885042,-0.01651991,0.002143525,0.03264559,0.036650193
1.454880042,-0.007567037,0.003151594,0.032344458,0.033366998
1.464876042,-0.005639132,0.005610678,0.029202164,0.030266251
1.474872042,-0.008961991,0.006301352,0.026057532,0.028266929
1.484868042,-0.001805876,0.006093849,0.033991034,0.034580147
1.494864042,-0.012215468,0.008116474,0.033692241,0.036745911
1.504859042,-0.01075514,0.004415178,0.040579677,0.042212285
1.514855042,-0.010791073,0.009942331,0.035941665,0.038821392
1.524851042,-0.011172417,0.007992267,0.031450419,0.0343195
1.534847042,-0.008629759,0.000162178,0.023813955,0.025329894
1.544843208,-0.007771498,0.000881449,0.025310842,0.026491732
1.554838208,-0.012776114,0.010899859,0.035042363,0.03885876
1.564834208,-0.011097271,0.007951957,0.016630066,0.02151609
1.574830208,-0.003965184,-0.001191681,0.028156098,0.028458893
1.584826208,-0.004874358,-0.007173227,0.032647344,0.033779633
1.594821208,-0.008310061,0.000567481,0.015732518,0.01780144
1.604817208,-0.008011384,0.009383392,0.023965983,0.026955494
1.614813208,-0.013905855,-0.000444745,0.033247853,0.036041508
1.624809208,-0.001431796,-0.002991728,0.031002522,0.03117943
1.634805208,-0.004305291,-0.008252888,0.034896768,0.036116895
1.644800208,-0.002536058,0.001430722,0.036693617,0.036808968
1.654796208,-0.007380027,0.00687913,0.033551908,0.03503595
1.664792208,-0.002157623,0.003918941,0.029210351,0.029550939
1.674788208,-0.013925427,-0.001860812,0.021575056,0.02574613
1.684783208,-0.005397446,-0.001883151,0.018131046,0.019010879
1.694779208,-0.00704098,-0.000731541,0.018880075,0.020163526
1.704775208,-0.006681033,0.000424727,0.035795485,0.036416114
1.714771208,-0.013634419,-0.004504211,0.037292372,0.03996131
1.724767208,-0.007520259,-0.001432623,0.025915444,0.027022527
1.734762208,-0.00787429,0.007209197,0.02935887,0.031239721
1.744758208,-0.005166673,-0.000796701,0.032503502,0.032921223
1.754754208,-0.008173224,0.002697586,0.037294711,0.038274979
1.764750208,-0.011478167,0.006455454,0.020679263,0.024516384
1.774745208,-0.006554318,0.003223625,0.028163114,0.029094876
1.784741208,-0.00437681,0.002575918,0.031906502,0.032308152
1.794737208,-0.009289156,0.005626739,0.030111406,0.032010083
1.804733208,-0.011488925,0.011444134,0.022477866,0.027716747
1.814729208,-0.011550352,-0.003033983,0.031159227,0.033369344
1.824724208,-0.008138086,-6.34971E-06,0.038041985,0.038902713
1.834720208,-0.00231071,0.005092176,0.029660001,0.030182533
1.844716208,-0.011191868,0.009642689,0.028164868,0.031804075
1.854712208,-0.014744522,0.003604571,0.030111991,0.033721297
1.864707208,-0.00737877,0.004591581,0.020531913,0.022295478
1.874703208,-0.003633241,0.002069266,0.031158643,0.031437928
1.884699208,-0.013099065,0.00557268,0.025020236,0.028786324
1.894695208,-0.009070717,0.00258489,0.03040903,0.031838163
1.904690208,-0.010103185,-0.003285971,0.026368019,0.02842788
1.914686208,0.000107228,-0.000661448,0.030109652,0.030117108
1.924682208,-0.007169207,0.003200857,0.03624689,0.037087465
1.934678208,-0.009306081,0.008477531,0.022474943,0.025760333
1.944674208,-0.012203646,0.004824967,0.031756813,0.03436138
1.954669208,-0.011667854,0.007655138,0.018883583,0.02348041
1.964665208,-0.009934291,0.008586673,0.034303275,0.036730584
1.974661208,-0.008389297,0.001406429,0.03669771,0.037670682
1.984657208,-0.001266877,0.00475195,0.027266736,0.027706694
1.994652208,-0.011483283,0.008034951,0.032204125,0.035121673
2.004648208,-0.004384174,-0.001658161,0.032352059,0.032689849
2.014644208,-0.006165121,0.003631295,0.041483071,0.042095608
2.024640208,-0.006647023,0.002982902,0.039987354,0.040645653
2.034636208,-0.009046812,-0.005639722,0.029360624,0.031236157
2.044631208,-0.01608305,0.000723684,0.03040903,0.034407809
2.054627208,-0.010556961,-0.006026415,0.035349342,0.037381052
2.064623208,-0.005372052,0.004061677,0.032207049,0.032903649
2.074619208,-0.009842088,0.00105904,0.02726966,0.029010733
2.084614208,-0.007968403,0.001141166,0.028767716,0.029872717
2.094610208,-0.009911318,0.006369564,0.027717556,0.030117578
2.104606208,-0.009052883,0.010610778,0.025771018,0.02930339
2.114602208,-0.007875263,-0.004675251,0.018732725,0.020851684
2.124597208,-0.013487213,-0.002629941,0.029210935,0.032281577
2.134593208,-0.01162326,-0.001178314,0.043582222,0.045120934
2.144589208,-0.008974339,-0.001281472,0.029510897,0.030871896
2.154585208,0.000190658,0.008597097,0.023225725,0.024766525
2.164581208,-0.011749834,0.000925788,0.029512652,0.031779117
2.174576208,-0.010529205,0.001444801,0.033555416,0.035198261
2.184572208,-0.011554007,0.00128361,0.023077206,0.025839895
2.194568208,-0.010114466,-0.001847254,0.032355568,0.033949927
2.204564208,-0.000603277,0.001126064,0.025168755,0.025201155
2.214559208,-0.003367051,0.008639965,0.029509143,0.030931789
2.224555208,-0.003897978,0.002998754,0.032055606,0.032430674
2.234551208,-0.00763703,0.005921484,0.02696502,0.02864438
2.244547208,-0.004274851,-0.000212354,0.027712294,0.028040875
2.254542208,-0.01071394,0.004673168,0.029060662,0.031323299
2.264538208,-0.01201109,0.012395238,0.02262697,0.028458531
2.274534208,-0.003418554,0.009044062,0.024122103,0.02598764
2.284530208,-0.009122785,0.003028383,0.024869378,0.026662375
2.294525208,-0.003756841,0.001644867,0.031307162,0.031574639
2.304521208,-0.00152616,0.007932917,0.032505257,0.03349406
2.314517208,-0.010793133,0.004217359,0.030107898,0.032260864
2.324513208,-0.010926742,0.001262697,0.030856342,0.032758234
2.334509208,-0.011719003,0.004913543,0.020379301,0.024016533
2.344504208,-0.008478401,0.007981066,0.025020236,0.027596972
2.354500208,-0.009693098,0.001350963,0.029510313,0.031090832
2.364496208,-0.007126066,0.004592504,0.028309879,0.029552008
2.374492208,-0.004033976,0.015945439,0.020674,0.026418635
2.384487208,-0.006721585,-0.00216833,0.025763417,0.026713948
2.394483208,-0.009970425,0.002394627,0.027409408,0.029264642
2.404479208,-0.01128689,0.002865127,0.025912521,0.028408829
2.414475208,-0.010654682,0.006907937,0.035941665,0.038118829
2.424470208,-0.009612407,0.007551926,0.037287694,0.039240312
2.434466208,-0.009979448,0.00131058,0.028305202,0.030041495
2.444462208,-0.006971201,0.005644135,0.02501205,0.026571724
2.454458208,-0.011090048,-0.00248873,0.038185242,0.039840879
2.464453208,-0.007392722,0.001885581,0.030102051,0.031053844
2.474449208,-0.004976145,0.003910563,0.028603994,0.029295785
2.484445208,-0.011777329,-0.000702104,0.035040025,0.036972987
2.494441208,-0.014889528,0.001209643,0.032045665,0.035356555
2.504436208,-0.011779796,0.011184006,0.032794694,0.036596961
2.514432208,-0.016141125,0.009769948,0.035338233,0.040059686
2.524428208,-0.01299609,-0.003484831,0.028602825,0.031609555
2.534424208,-0.011679953,0.002433173,0.023962474,0.026768298
2.544421042,-0.013261106,0.005819432,0.025009711,0.028899972
2.554416042,-0.009557292,-0.001262213,0.036384884,0.037640335
2.564412042,-0.013091738,0.001054545,0.028599901,0.031471575
2.574408042,-0.008498505,0.003784409,0.023808693,0.025561694
2.584404042,-0.018973626,0.004469849,0.03159426,0.037123784
2.594399042,-0.006423418,0.008067851,0.038629045,0.039981917
2.604395042,-0.009197001,0.00910173,0.032938535,0.035388888
2.614391042,-0.016522267,0.007922082,0.041171415,0.045064732
2.624387042,-0.008387027,0.000627013,0.029644799,0.03081476
2.634382042,-0.008208879,0.00504802,0.028147911,0.029751859
2.644378042,-0.010856754,0.009240766,0.02650192,0.030093399
2.654374042,-0.007194277,0.007451427,0.021561608,0.023920374
2.664370042,-0.004552994,-0.000654459,0.019316277,0.0198564
2.674365042,-0.001313127,0.002378191,0.020362929,0.020543343
2.684361042,-0.007176461,0.001817251,0.035481489,0.036245553
2.694357042,-0.012028718,0.007676764,0.038624368,0.041176019
2.704353042,-0.00355378,0.010665806,0.028594639,0.030725268
2.714348042,-0.00341868,0.0080978,0.025150629,0.02664237
2.724344042,-0.011253798,0.005064767,0.032784753,0.035030557
2.734340042,-0.009232249,0.011499801,0.034581018,0.037594237
2.744336042,-0.012668335,0.009511319,0.032633895,0.036275653
2.754331042,-0.01310012,0.005388958,0.03203631,0.035028262
2.764327042,-0.007746718,0.007497473,0.027245686,0.029301044
2.774323042,-0.007403404,0.011231158,0.028293507,0.031328451
2.784319042,-0.003839241,0.012081197,0.034581018,0.036831263
2.794315042,-0.010793471,0.008310849,0.030689696,0.033577175
2.804310042,-0.012170941,0.003546455,0.036077321,0.038239799
2.814306042,-0.005354286,-0.001553788,0.036077905,0.036506135
2.824302042,-0.009232438,0.003486786,0.02904312,0.030674068
2.834297042,-0.006988592,0.011564431,0.029643629,0.032577926
2.844293042,-0.007862854,0.009681893,0.027399468,0.030104723
2.854289042,-0.004397239,0.005919246,0.022909391,0.024066852
2.864285042,-0.003514311,0.001254639,0.026950402,0.027207511
2.874281042,-0.007975604,0.006670641,0.02665044,0.028606881
2.884276042,-0.009147814,0.005246104,0.032338026,0.034013998
2.894272042,-0.003144562,0.010605607,0.027847365,0.029964026
2.904268042,-0.007302055,0.001318657,0.026350477,0.02737529
2.914264042,-0.009956771,-0.008224885,0.029343667,0.032059894
2.924259042,-0.012193601,0.007158298,0.035929971,0.038612018
2.934255042,-0.008580937,0.007836722,0.031290205,0.033378491
2.944251042,-0.015119566,0.000683585,0.029940668,0.033548653
2.954247042,-0.005213067,0.007456296,0.022605336,0.024367471
2.964242042,-0.009134262,0.005112668,0.032935027,0.034558503
2.974238042,-0.008188425,1.71671E-05,0.036978961,0.037874717
2.984234042,-0.004376403,-0.004046968,0.02530441,0.025997001
2.994230042,-0.011635036,0.008164851,0.017519428,0.022560346
3.004225042,-0.000512984,0.003580113,0.026203128,0.026451545
3.014221042,-0.000253132,0.001348185,0.020811995,0.020857152
3.024217042,-0.014652031,0.000672329,0.030392073,0.03374629
3.034213042,-0.004712842,0.009635974,0.034733046,0.036351717
3.044208042,-0.010891755,0.003923646,0.031290205,0.033363187
3.054204042,-0.005291552,-0.002283228,0.027397714,0.027997292
3.064200042,-0.007411175,0.004761397,0.028293507,0.029633072
3.074196042,-0.005722517,0.001742817,0.018114674,0.019076845
3.084191042,-0.006598003,0.004185053,0.020810825,0.022229232
3.094187042,-0.013018202,0.010080792,0.025150629,0.030060773
3.104183042,-0.008825445,0.013088864,0.018415221,0.024255457
3.114179042,-0.006474946,0.006212036,0.023504637,0.02515914
3.124174042,-0.014243134,-0.003558862,0.032184829,0.03537507
3.134170042,-0.010255103,-0.003851753,0.024251327,0.026610712
3.144166042,-0.002419041,0.003970415,0.028591715,0.02896726
3.154162042,-0.011895964,0.000571291,0.017215372,0.020933451
3.164157042,-0.004707831,-0.004033665,0.019160741,0.020138722
3.174153042,-0.002699029,0.001432376,0.033981094,0.034118194
3.184149042,-0.007396913,0.011532801,0.033532612,0.036223693
3.194145042,-0.005729271,0.006397055,0.02500094,0.026434709
3.204140042,-0.004887162,0.00183936,0.033384678,0.033790595
3.214136042,-0.006328364,0.007785175,0.034732461,0.036152469
3.224132042,-0.005286436,0.00115488,0.024404524,0.024997219
3.234128042,-0.012479484,-0.006153792,0.027397714,0.030728511
3.244123042,-0.016219797,-0.001483055,0.024105731,0.029092397
3.254119042,-0.013483816,-0.002056548,0.028595808,0.031682218
3.264115042,-0.008106991,0.007980819,0.027547987,0.029804502
3.274111042,-0.004943812,0.004286375,0.022907052,0.023823252
3.284106042,-0.001941376,0.001427634,0.039672189,0.03974531
3.294102042,-0.002692828,0.002328261,0.023058495,0.023331659
3.304098042,-0.011518362,-0.00259916,0.033985772,0.035978618
3.314094042,-0.010506494,0.004081695,0.02530441,0.027701261
3.324089042,-0.008204914,0.009417306,0.026952741,0.029706169
3.334085042,-0.007754571,0.011402491,0.030245308,0.033240469
3.344081042,-0.005015509,0.001287785,0.02455889,0.025098861
3.354077042,-0.004194678,-0.000538675,0.031593091,0.031874894
3.364072042,-0.007763709,0.008109668,0.041172,0.042675232
3.374068042,-0.006200844,0.01626552,0.023060834,0.028893246
3.384064042,-0.005236321,0.004073499,0.035335894,0.035953273
3.394060042,0.000926012,0.000507794,0.022015352,0.022040668
3.404055042,-0.001929476,0.013091276,0.031596599,0.034255649
3.414051042,-0.00734715,0.000205319,0.021268662,0.022502861
3.424047042,-0.009100017,-0.004553839,0.024710918,0.026724095
3.434043042,-0.010593688,0.001029795,0.03324376,0.034906078
3.444038042,-0.00667818,-0.000188289,0.03204625,0.032735236
3.454034042,-0.008010882,-0.00269035,0.030249401,0.031407618
3.464030042,-0.00729272,0.009575199,0.031596599,0.033811437
3.474025042,-0.003901064,0.006449652,0.029350684,0.030303118
3.484021042,-0.013082919,-0.0017081,0.027854966,0.030821737
3.494017042,-0.014736845,0.000463666,0.024562984,0.028648381
3.504013042,-0.007810448,0.003643345,0.022767888,0.024344482
3.514008042,-0.007173583,0.004781707,0.036241043,0.037252358
3.524004042,-0.006285446,0.003315335,0.034444778,0.035170172
3.534000042,-0.00941684,-0.002937513,0.035340571,0.036691441
3.543996042,-0.007672365,0.005275897,0.022015936,0.023904011
3.553989708,-0.009189758,0.004129158,0.029350099,0.031031112
3.563985708,-0.011195408,0.002951565,0.034138384,0.036048275
3.573981708,-0.010882655,0.003504182,0.02815142,0.030384435
3.583977708,-0.008722308,0.006535862,0.0299471,0.031868871
3.593972708,-0.017946544,0.0042842,0.032344458,0.037237035
3.603968708,-0.012155756,0.002828481,0.024561229,0.027550258
3.613964708,-0.004874552,-0.00300091,0.026207805,0.026825655
3.623960708,-0.014657378,0.009885275,0.021867417,0.028120123
3.633955708,-0.006166631,0.007564662,0.026658626,0.028388973
3.643951708,-0.009916188,-0.006839077,0.030254079,0.032563984
3.653947708,-0.004871959,0.003454544,0.02591369,0.026593029
3.663943708,-0.000799095,-0.001450996,0.020676339,0.020742588
3.673938708,-0.011896201,-0.001682555,0.030704314,0.032971283
3.683934708,-0.005140251,0.011116836,0.036690693,0.038680915
3.693930708,-0.013711693,0.002890745,0.024715011,0.028411243
3.703926708,-0.010673181,0.004788075,0.024113917,0.026801557
3.713921708,-0.009860943,0.004475706,0.028005824,0.030026594
3.723917708,-0.011865225,0.000307271,0.034741817,0.036713373
3.733913708,-0.006455669,0.005215442,0.03489209,0.035865505
3.743908708,-0.007452128,0.006415547,0.02321637,0.025212958
3.753904708,-0.01001464,0.005162297,0.026810068,0.029081302
3.763900708,0.001598243,0.010891718,0.021719483,0.024349945
3.773896708,-0.004571879,0.008034668,0.028305786,0.029777097
3.783891708,-0.009790464,0.006877175,0.023815709,0.026652143
3.793887708,-0.002575817,-0.006859542,0.033693995,0.034481495
3.803883708,-0.00892186,0.009225645,0.027705277,0.030533498
3.813879708,-0.005189372,0.006375932,0.02486353,0.026187349
3.823874708,-0.007766397,0.001310425,0.023515747,0.024799688
3.833870708,-0.012785467,-0.00067507,0.022318822,0.025730404
3.843866708,-0.004973715,0.004910684,0.026960342,0.027851619
3.853862708,-0.006233554,0.005418459,0.025613728,0.02691245
3.863857708,-0.002702412,0.006913784,0.02711237,0.028110212
3.873853708,-0.015849611,-0.00141964,0.025616652,0.030156896
3.883849708,-0.010111051,0.008095488,0.03055521,0.033187214
3.893845708,-0.004012524,0.005934796,0.027861983,0.02876825
3.903840708,-0.010506588,0.002857735,0.023820972,0.026191482
3.913836708,-0.009202209,0.000712684,0.037293541,0.038418704
3.923832708,-0.001234891,0.013402028,0.034450625,0.03698628
3.933828708,-0.002563693,0.009004813,0.028014595,0.029537717
3.943823708,-0.012303917,0.00013466,0.025469887,0.028286386
3.953819708,-0.007702304,0.00061065,0.034600314,0.035452505
3.963815708,-0.018033274,-0.00262476,0.030110822,0.03519588
3.973810708,-0.018019876,-0.005512965,0.033105181,0.038092804
3.983806708,-0.006430772,-0.000338179,0.022477866,0.023382123
3.993802708,-0.004605194,0.004579375,0.007059928,0.009592761
4.003798708,-0.004868796,0.001704856,0.021727669,0.022331666
4.013793708,-0.004010484,0.001768938,0.027417009,0.027765186
4.023789708,-0.006605526,0.005910713,0.030262265,0.031533699
4.033785708,-0.009776131,0.00490469,0.029664679,0.031616798
4.043781708,-0.006318643,-0.000525738,0.023081299,0.023936333
4.053776708,-0.011501069,0.002273708,0.031763245,0.033857762
4.063772708,-0.012999831,-0.002344816,0.02876947,0.031657167
4.073768708,-0.006916968,-0.001681285,0.034906123,0.035624551
4.083764708,-0.006604293,0.005045014,0.033558925,0.034572681
4.093759708,-0.008839652,0.00457266,0.040143474,0.041358762
4.103755708,-0.008702315,-0.002896099,0.019787562,0.021809753
4.113751708,-0.007711166,-0.002982866,0.023378922,0.024797854
4.123746708,-0.003785876,0.001222872,0.03535402,0.03557717
4.133742708,-0.00591101,-0.001444482,0.037299389,0.037792472
4.143738708,-0.015265253,0.005250635,0.029367056,0.033511507
4.153734708,-0.011410263,0.005927898,0.023679469,0.02694534
4.163729708,-0.003688805,0.001816995,0.030117254,0.030396673
4.173725708,-0.007172795,0.003686514,0.032064376,0.033063025
4.183721708,-0.010134472,0.001230364,0.037152624,0.038529713
4.193717708,-0.013934308,0.001587327,0.035505463,0.038174893
4.203712708,-0.002559007,-0.001358445,0.03595219,0.036068738
4.213708708,-0.015939697,0.000198559,0.023678885,0.028544753
4.223704708,-0.007886277,0.011266598,0.023678885,0.027382826
4.233699708,-0.000275751,0.009945365,0.02772048,0.029451848
4.243695708,-0.010597041,0.006366942,0.029965811,0.032415815
4.253691708,-0.006041165,-0.002756158,0.029067094,0.029815902
4.263687708,0.000125631,-0.003608929,0.031014217,0.031223737
4.273682708,-0.004029517,-8.75621E-05,0.024578186,0.024906463
4.283678708,-0.011461582,0.002090809,0.028168961,0.03048327
4.293674708,-0.011068647,-0.001014812,0.037599351,0.039207856
4.303670708,0.000713463,0.000182406,0.034455888,0.034463756
4.313665708,0.001556801,0.003139014,0.029816122,0.030021295
4.323661708,-0.009808341,0.004075391,0.019936666,0.022589445
4.333657708,-0.007538582,0.002190157,0.031462698,0.032427278
4.343653708,-0.00398609,-0.004056588,0.027719895,0.028297304
4.353648708,-0.004426619,-0.00921407,0.035652813,0.037089312
4.363644708,-0.001017397,-0.002461203,0.024723782,0.024866805
4.373640708,-0.014488062,-0.001754375,0.022329347,0.026675485
4.383635708,-0.002915771,-0.005109599,0.035500785,0.035984934
4.393631708,-0.010885179,0.008366918,0.034003898,0.036670935
4.403627708,-0.005880207,-0.004889707,0.032059114,0.032958654
4.413623708,-0.006052286,0.007633942,0.027568452,0.029239131
4.423618708,-0.013202415,0.00774154,0.018735064,0.024191689
4.433614708,-0.010416888,-0.006850634,0.027118801,0.029847481
4.443610708,0.002877145,3.77511E-05,0.033855379,0.033977434
4.453606708,-0.008059135,0.005106584,0.025172263,0.02691969
4.463601708,-0.014094805,0.003693768,0.031459774,0.03467023
4.473597708,-0.008580775,0.003442439,0.021878527,0.023751843
4.483593708,-0.002217246,0.007545439,0.029062416,0.030107704
4.493588708,-0.009679296,-0.005321706,0.029209181,0.031227962
4.503584708,-0.003708836,0.003811407,0.022922255,0.023531087
4.513580708,-0.006240085,-8.84483E-05,0.023970076,0.024769155
4.523576708,-0.009603024,0.000957372,0.02292167,0.024870416
4.533571708,-0.006364973,-0.00140568,0.029659417,0.030367249
4.543567708,0.000539968,0.00040946,0.033551323,0.033558166
4.553564292,-0.006471059,0.005223281,0.027863152,0.029077698
4.563560292,-0.00322272,0.001789147,0.026515954,0.026770931
4.573555292,0.003512066,0.002101087,0.037442645,0.037665646
4.583551292,-0.00624817,-0.004262127,0.022624632,0.023855383
4.593547292,-0.00442541,-0.004560819,0.029358285,0.030038213
4.603542292,-0.003979809,0.009841604,0.029208012,0.031077387
4.613538292,-0.0042178,-0.00260752,0.02531669,0.025797747
4.623534292,-0.012167983,0.001839872,0.018583621,0.022288919
4.633530292,-0.008853278,0.003391942,0.024871716,0.02661744
4.643525292,-0.007840442,0.004632183,0.031159812,0.032463265
4.653521292,-0.001397768,0.011266305,0.026970282,0.029262254
4.663517292,-0.004221075,0.003558615,0.02248079,0.023148804
4.673512292,-0.007646418,-0.000502513,0.022631063,0.023893205
4.683508292,-0.011412228,0.010957308,0.029667018,0.03362192
4.693504292,-0.008059533,0.003398036,0.028320989,0.029640869
4.703500292,-0.01006954,0.006051932,0.024878148,0.027512612
4.713495292,-0.003809708,0.009044583,0.028470093,0.030114192
4.723491292,-0.005879439,-0.000730756,0.024578771,0.025282757
4.733487292,0.004977502,-0.001046067,0.025028422,0.025540002
4.743483292,-0.004644009,-0.004759195,0.033861226,0.034507961
4.753478292,-0.011991751,0.004658431,0.02458111,0.027744081
4.763474292,-0.001538672,0.004116184,0.021887882,0.022324647
4.773470292,-0.008232839,0.001240706,0.02398294,0.025387012
4.783465292,-0.009772557,0.006858948,0.032515782,0.034638477
4.793461292,-0.003720761,0.003042197,0.035209009,0.035535522
4.803457292,-0.001475131,0.004969037,0.032963094,0.033368142
4.813453292,-0.003892423,0.005426152,0.033563603,0.034221477
4.823448292,-0.010495309,-0.000334698,0.024733137,0.026869902
4.833444292,-0.006775397,-0.000741034,0.01455372,0.016070653
4.843440292,-0.0067879,0.004009262,0.023836759,0.02510659
4.853435292,-0.002353239,0.000688309,0.024436099,0.024558795
4.863431292,-0.011871264,0.0003424,0.014408124,0.018671855
4.873427292,-0.004297379,0.012154269,0.026829364,0.029765895
4.883423292,-0.007147084,0.007420774,0.029373488,0.03112797
4.893418292,-0.001959978,0.007300715,0.025930063,0.027009444
4.903414292,-0.006738788,0.001473571,0.017100182,0.018439059
4.913410292,-0.001110304,-0.002175466,0.035066337,0.035151293
4.923406292,-0.001001904,0.000504459,0.028929684,0.028951423
4.933401292,-0.003120472,-0.000528232,0.03177377,0.031931001
4.943397292,-0.003718053,0.000412402,0.028180656,0.028427862
4.953393292,-0.000424693,0.002195794,0.023390617,0.023497294
4.963388292,-0.008626847,0.006866166,0.030575091,0.032502352
4.973384292,-0.012473047,0.001005474,0.036413535,0.038503681
4.983380292,-0.004729059,-0.005138423,0.030725364,0.031508973
4.993376292,-0.011797075,0.010420524,0.02653408,0.03085151
5.003371292,-0.008008831,0.004617062,0.018003577,0.020238266
5.013367292,-0.010568116,0.005551995,0.022345719,0.025334579
5.023363292,-0.012511228,0.008596375,0.033723816,0.036982757
5.033358292,-0.013394253,-0.001174706,0.022498332,0.026209939
5.043354292,-0.004332558,-0.007717831,0.029083466,0.030400394
5.053350292,-0.014742905,-0.000534819,0.025940003,0.029841632
5.063346292,-0.006805015,0.000740449,0.030880315,0.031629897
5.073341292,-0.001115722,0.00079471,0.026388484,0.026424014
5.083337292,0.000749053,0.004188562,0.02578856,0.026137233
5.093333292,-0.001836558,-0.002532986,0.017405992,0.017684951
5.103328292,-0.002514351,0.004090995,0.032376618,0.032730774
5.113324292,-0.011972622,-0.003624799,0.029083466,0.031659609
5.123320292,-0.013719859,-0.002677623,0.022795955,0.026740601
5.133316292,-0.005066297,-0.000433306,0.029981598,0.030409725
5.143311292,-0.009506572,-6.86865E-05,0.020551794,0.022644113
5.153307292,-0.006346529,0.00436374,0.019953623,0.021388496
5.163303292,-0.007347054,0.006130806,0.028786427,0.0303352
5.173298292,-0.002837382,-0.001298913,0.029233739,0.02939982
5.183294292,-5.79605E-05,-0.003514971,0.026090276,0.02632605
5.193290292,-0.008019607,0.00014544,0.029384598,0.030459643
5.203286292,-0.00665793,-0.00286869,0.030433003,0.031284582
5.213281292,-0.005745949,0.003356229,0.035823551,0.036436342
5.223277292,-0.007977772,-0.006727788,0.025345926,0.027410289
5.233273292,-0.00502684,0.000599531,0.012323007,0.013322352
5.243268292,-0.004702527,-0.004076871,0.022951491,0.023780361
5.253264292,-0.000786841,-0.001400235,0.029837757,0.029880956
5.263260292,-0.001978405,0.000258063,0.025497369,0.02557531
5.273256292,-0.001509514,-0.000682251,0.023851962,0.023909416
5.283251292,-0.005355638,0.00332501,0.01876313,0.019793777
5.293247292,-0.005145125,0.001487166,0.02984068,0.03031749
5.303243292,-0.010688939,-0.00217246,0.034779239,0.036449533
5.313238292,-0.005496579,-0.005357027,0.028940209,0.029940705
5.323234292,-0.007038412,0.000447513,0.032533323,0.033288987
5.333230292,-0.001888808,0.008308126,0.032681842,0.033774182
5.343226292,-0.009067378,0.001671956,0.022655037,0.024459425
5.353221292,-0.007055796,0.009547379,0.017116554,0.020830582
5.363217292,-0.004824026,0.003364588,0.025350603,0.026023927
5.373213292,-0.015849607,-0.002912279,0.028795198,0.032997801
5.383208292,-0.00236508,0.001483393,0.027148038,0.027291207
5.393204292,-0.007098312,0.000534481,0.022656206,0.023748166
5.403200292,-0.005036919,-0.002307129,0.024154263,0.024781482
5.413196292,-0.004198488,0.006360318,0.031337568,0.032250955
5.423191292,-0.0032329,0.003326371,0.028344378,0.028721423
5.433187292,-0.008561068,-0.004396841,0.024753018,0.026558163
5.443183292,-0.00724729,0.000734675,0.015025005,0.016697717
5.453178292,-0.006792697,0.009480301,0.021609555,0.024555849
5.463174292,-0.009794054,-0.004079182,0.026399009,0.028451202
5.473170292,-0.000672302,-0.005422105,0.03328469,0.033730132
5.483166292,-0.009822436,0.001480113,0.03852555,0.039785537
5.493161292,-0.011734951,-0.002927619,0.028046755,0.030543419
5.503157292,-0.004176237,-0.00531923,0.022956169,0.023931587
5.513153292,-0.010755887,0.004570659,0.023554924,0.026294761
5.523148292,-0.010356488,-0.003121563,0.027298311,0.029363222
5.533144292,-0.012952286,-0.003021421,0.02505415,0.028365492
5.543140292,-0.008335763,0.005097292,0.016072242,0.018809154
5.553139917,-0.007401961,0.005130859,0.016069318,0.018421121
5.563134917,-0.010919817,-0.002686238,0.019961225,0.022910888
5.573130917,-0.004159803,0.004806713,0.024750679,0.025553954
5.583126917,-0.009247253,0.009611708,0.018164375,0.022535331
5.593121917,-0.011790029,0.006772218,0.019659508,0.023903221
5.603117917,-0.002601175,-0.002097652,0.026244058,0.026455941
5.613113917,-0.009266613,-0.000303224,0.02938986,0.030817624
5.623108917,-0.014829299,0.003303302,0.022353905,0.027028078
5.633104917,-0.01017884,-5.55303E-05,0.024448963,0.026483271
5.643100917,-0.008459213,0.004596569,0.020407952,0.022564823
5.653096917,-0.006921258,0.001636928,0.029538964,0.030383116
5.663091917,-0.007910047,0.000279396,0.019658924,0.021192456
5.673087917,-0.002030005,-0.003177715,0.031334644,0.031560715
5.683083917,-0.011189225,-0.005736712,0.027444491,0.030187891
5.693078917,-0.008474502,0.001286086,0.028043831,0.029324523
5.703074917,-0.004775261,0.007143269,0.028341454,0.029615324
5.713070917,-0.007529971,0.005514783,0.028491143,0.029980969
5.723066917,-0.005886737,-0.003829141,0.037323947,0.037978849
5.733061917,-0.002451674,0.001136014,0.030588539,0.030707653
5.743057917,-0.013650156,0.009358779,0.027894142,0.032434498
5.753053917,-0.010620791,0.008992771,0.027595934,0.030906419
5.763048917,-0.011307793,0.004643301,0.026848075,0.029499925
5.773044917,-0.013177404,-0.005498402,0.021310762,0.025651998
5.783040917,-0.017407709,0.006013633,0.029094576,0.034433798
5.793036917,-0.011894328,0.007290016,0.016668073,0.021735778
5.803031917,-0.008826278,0.002824406,0.025200915,0.026850821
5.813027917,-0.007846518,-0.008039492,0.032984143,0.034844727
5.823023917,-0.011660157,0.004001204,0.030291501,0.032703882
5.833018917,-0.012317512,-0.005720039,0.026100217,0.029422122
5.843014917,-0.014880712,-0.007621124,0.025650566,0.030618109
5.853010917,-0.009056684,-0.00112896,0.02460216,0.02624051
5.863005917,-0.006984773,-0.001930714,0.024899783,0.025932873
5.873001917,-0.011995919,0.000181583,0.027743284,0.030226228
5.882997917,-0.006552328,-0.004195478,0.019510404,0.021004545
5.892993917,-0.012905856,-0.004158649,0.018911065,0.023269806
5.902988917,-0.008179277,0.010729604,0.02460216,0.028058711
5.912984917,-0.006313791,0.003100888,0.025350019,0.026307849
5.922980917,-0.005552041,-0.002026563,0.018014102,0.018958903
5.932975917,-0.006494402,0.006590726,0.019808612,0.021863121
5.942971917,-0.004445286,0.00948338,0.021753981,0.024143959
5.952967917,-0.003519969,0.001358217,0.015767017,0.016212149
5.962962917,-0.009353969,0.001025647,0.025647057,0.027318862
5.972958917,-0.008430792,0.000536509,0.026994256,0.02828526
5.982954917,-0.005280954,0.000911508,0.026546359,0.027081885
5.992950917,-0.009759133,0.003934345,0.025348265,0.027445478
6.002945917,-0.009351166,0.001351401,0.019360716,0.021543164
6.012941917,-0.003045248,0.008180447,0.030887332,0.032097048
6.022937917,-0.005339522,-0.000457673,0.029539549,0.03002174
6.032932917,-0.004896294,0.001372524,0.030290331,0.030714194
6.042928917,-0.007285051,0.004260784,0.027295972,0.0285709
6.052924917,-0.007848779,0.00915631,0.021757489,0.024876288
6.062920917,-0.01371321,0.000864374,0.017866167,0.022538838
6.072915917,0.001106284,0.000966097,0.021908348,0.021957525
6.082911917,-0.002006235,0.000270315,0.015322044,0.015455196
6.092907917,-0.002803603,0.001842978,0.017566205,0.017883745
6.102902917,-0.006597391,0.008424294,0.024753018,0.026966761
6.112898917,-0.004870552,-0.00105026,0.027747377,0.028191174
6.122894917,-0.006486787,0.000431342,0.024903291,0.025737878
6.132889917,-0.007815626,0.007937796,0.027746208,0.029898907
6.142885917,-0.012014502,0.006240752,0.02759535,0.030737576
6.152881917,-0.00959484,-0.000160533,0.019663602,0.021880218
6.162877917,-0.007978357,0.000269356,0.03089084,0.031905654
6.172872917,-0.013953163,0.003440684,0.026399594,0.030057738
6.182868917,0.001790927,-0.000380946,0.01696862,0.01706712
6.192864917,-0.003063841,-0.001673884,0.019515082,0.01982492
6.202859917,-0.008912146,0.000147176,0.025801424,0.027297646
6.212855917,-0.008164287,-8.25554E-05,0.02849699,0.029643563
6.222851917,-0.013656867,-0.002269606,0.023107612,0.026937387
6.232846917,-0.011935718,0.001360656,0.019364224,0.022787846
6.242842917,-0.000476585,0.002244646,0.022208894,0.022327126
6.252838917,0.001488635,0.002638538,0.031041114,0.031188598
6.262834917,-0.000466692,0.001727386,0.01696862,0.0170627
6.272829917,-0.00350097,0.007644229,0.018015856,0.0198812
6.282825917,-0.005561296,0.007654051,0.021458697,0.023451827
6.292821917,-0.01220762,-0.003631961,0.019364224,0.023177366
6.302816917,-0.000966842,-0.001333951,0.026550452,0.026601517
6.312812917,-0.005072606,-0.00031427,0.01921629,0.019877019
6.322808917,-0.007079302,0.008127246,0.016969789,0.020103293
6.332803917,-0.002536632,0.00300789,0.026997179,0.027282405
6.342799917,-0.002255102,0.006044596,0.028196443,0.028925111
6.352795917,-0.012745283,0.007963204,0.011580995,0.018972989
6.362791917,-0.007982505,0.003493638,0.024305121,0.025819853
6.372786917,-0.010310286,0.004688106,0.019515667,0.022564166
6.382782917,-0.004996357,0.001044304,0.025952867,0.026450056
6.392778917,-0.015419076,-0.006320073,0.022360922,0.02788731
6.402773917,-0.018045056,0.00682709,0.026255168,0.032581698
6.412769917,-0.007327872,-0.004198566,0.022065053,0.023626092
6.422765917,-0.010092009,-0.008887357,0.019520345,0.023703958
6.432760917,-0.013808698,0.002534942,0.021318364,0.025526039
6.442756917,-0.006646137,0.006016401,0.028802215,0.030165142
6.452752917,-0.006452517,-0.003197842,0.031198989,0.032019339
6.462748917,-0.009714735,-0.003044974,0.031648055,0.03324526
6.472743917,-0.008970102,0.001544743,0.036438679,0.037558305
6.482739917,-0.001626353,0.007114335,0.02970444,0.030587784
6.492735917,-0.005440569,0.000439647,0.022221174,0.022881732
6.502730917,-0.009281943,0.006181347,0.020124362,0.023007683
6.512726917,-0.005913419,0.002454533,0.029854129,0.03053297
6.522722917,-0.010428939,0.009290714,0.020122608,0.024494887
6.532717917,-0.00893884,-0.002831505,0.016829456,0.019265276
6.542713917,-0.006961375,-0.003829689,0.023417514,0.024728672
6.552706667,-0.00156207,0.000742688,0.025364637,0.025423541
6.562702667,-0.007153383,0.001977583,0.020124947,0.02144983
6.572697667,-0.011854277,-0.00124532,0.02207207,0.025084875
6.582693667,-0.01182495,0.004026374,0.025219041,0.028143226
6.592689667,-0.006260054,-0.000773175,0.022374371,0.023246474
6.602684667,-0.012255463,-0.002202591,0.017732851,0.02166799
6.612680667,-0.003077394,0.003333945,0.023119306,0.023560303
6.622676667,-0.003091341,-0.000838107,0.039434792,0.039564651
6.632671667,-0.013401741,-0.004087423,0.02970444,0.032843073
6.642667667,-0.013381474,0.000409625,0.020722532,0.024670934
6.652663667,-0.006262854,0.000983383,0.0262616,0.027015958
6.662659667,-0.008837614,0.001991013,0.023568372,0.02524947
6.672654667,-0.012900481,0.002538112,0.02685977,0.029905044
6.682650667,-0.00564836,-0.006587327,0.034343621,0.03542289
6.692646667,-0.00213888,0.001896252,0.021770938,0.021957785
6.702641667,-0.005866023,0.00214274,0.019975843,0.020929306
6.712637667,-0.010094816,-2.53714E-05,0.021922966,0.0241355
6.722633667,-0.005342391,-0.000187074,0.02027639,0.020969218
6.732628667,-0.012750754,-0.00192134,0.0307546,0.033348444
6.742624667,-0.010201633,-0.00220768,0.026413627,0.028401177
6.752620667,-0.00681736,0.01223306,0.021173353,0.025385725
6.762615667,-0.009393113,-0.00646904,0.028059034,0.030288421
6.772611667,-0.010977279,-0.010366629,0.025815457,0.029906613
6.782607667,-0.010982186,0.000174521,0.019679389,0.022537019
6.792603667,-0.018141669,-0.001914735,0.018929776,0.026289214
6.802598667,-0.008113252,-0.001030937,0.02970561,0.03081089
6.812594667,-0.00573394,0.003150123,0.02790993,0.028666453
6.822590667,-0.00890871,0.004964862,0.022520551,0.024722261
6.832585667,-0.008683106,0.000526277,0.023119306,0.024701733
6.842581667,-0.008568994,-0.006458962,0.028208138,0.030180207
6.852577667,-0.013841698,0.003164001,0.033596347,0.036473525
6.862572667,-0.006511788,-0.000373975,0.027761995,0.028517918
6.872568667,-0.006533313,0.00545399,0.011445925,0.014263218
6.882564667,-0.008446189,-0.001734193,0.03360044,0.034689121
6.892560667,-0.003823545,0.002066918,0.026566824,0.026920026
6.902555667,-0.007081876,0.001904128,0.024321494,0.025403026
6.912551667,-0.008940427,-0.004176575,0.014890519,0.017863443
6.922547667,-0.008362462,0.001560841,0.017883709,0.01980389
6.932542667,-0.00863308,-0.000352651,0.028958336,0.030219855
6.942538667,-0.005637995,0.003706751,0.023417514,0.024370206
6.952534667,-0.011079544,0.001933875,0.031951525,0.033873236
6.962529667,-0.015923298,0.001142546,0.038089932,0.041300118
6.972525667,-0.006429831,-0.001000267,0.031651563,0.032313538
6.982521667,-0.016175541,0.002207991,0.025067014,0.02991452
6.992516667,-0.014550554,0.004538919,0.023272503,0.027819594
7.002512667,-0.011331274,0.000455736,0.028060788,0.030265711
7.012508667,-0.00600993,0.006256037,0.028357826,0.029655077
7.022504667,-0.003809267,0.000201226,0.018029889,0.018428997
7.032499667,-0.000486582,0.004525252,0.02267024,0.023122596
7.042495667,-0.011913487,0.000303379,0.012489653,0.0172631
7.052491667,-0.006399108,0.00748313,0.02446475,0.026371762
7.062486667,-0.007619009,-0.001742781,0.020873975,0.022289222
7.072482667,-0.00280823,-0.007202673,0.018178993,0.019754505
7.082478667,-0.006930284,-0.002656536,0.026860355,0.02786691
7.092473667,-0.007411209,0.005539771,0.031351601,0.032688499
7.102469667,-0.0029824,0.004712107,0.028805723,0.029340558
7.112465667,-0.004298711,0.00632581,0.027009459,0.028071438
7.122460667,-0.007333843,0.002721568,0.021621249,0.022992838
7.132456667,-0.004439763,0.005595018,0.024165958,0.025199389
7.142452667,-0.009882539,0.007052491,0.026559223,0.029202646
7.152448667,-0.008490276,-0.00138325,0.015333154,0.017581347
7.162443667,-0.007898481,0.00023609,0.015482842,0.017382754
7.172439667,-0.007644275,0.002718526,0.018477201,0.020179998
7.182435667,-0.016996236,-0.001762205,0.023117552,0.02874715
7.192430667,-0.010676719,0.002481284,0.028954827,0.030960154
7.202426667,-0.004672204,0.002342943,0.015034361,0.015917
7.212422667,-0.011420896,-0.005144938,0.014437945,0.019114432
7.222417667,8.05682E-05,-0.002354555,0.027314098,0.027415514
7.232413667,-0.009888345,-0.005047709,0.018483049,0.021561118
7.242409667,-0.006918864,-0.003822763,0.014592896,0.016596289
7.252404667,-0.009382319,0.00304544,0.020580445,0.022822299
7.262400667,-0.006451868,0.00038619,0.018337453,0.019443197
7.272396667,-0.007761178,-0.004278124,0.020732473,0.022547143
7.282392667,-0.008357581,-0.007166549,0.030763956,0.032674601
7.292387667,-0.009694387,-0.009202001,0.026871464,0.030012223
7.302383667,-0.008669726,-0.012945005,0.025821889,0.030158038
7.312379667,-0.01253765,-0.003654236,0.018935623,0.023002259
7.322374667,-0.010236853,0.002824059,0.023875351,0.026130458
7.332370667,-0.004787239,-0.002338649,0.027167918,0.027685424
7.342366667,-0.005295408,0.001958077,0.022677841,0.023370064
7.352361667,-0.010947134,-0.001780313,0.012798386,0.016935405
7.362357667,-0.013368887,-0.001920491,0.021328304,0.025245038
7.372353667,-0.011105137,0.004066839,0.023125153,0.025973755
7.382348667,-0.013551489,-0.000308468,0.023275427,0.026934801
7.392344667,-0.009428114,-0.000777734,0.035700175,0.036932326
7.402340667,-0.013847043,-0.005923714,0.022526398,0.027097409
7.412335667,-0.012618671,0.00117804,0.018184841,0.022165447
7.422331667,-0.009979836,0.003517182,0.023722154,0.025975147
7.432327667,-0.008842137,-0.000690995,0.020878068,0.022683796
7.442323667,-0.010370357,-0.000146509,0.025818381,0.027823633
7.452318667,-0.008451812,-0.005878672,0.027464957,0.02933114
7.462314667,-0.010354939,-0.006168292,0.027764919,0.03026819
7.472310667,-0.014926548,-0.00148427,0.020427833,0.025343663
7.482305667,-0.010074497,0.002398601,0.029409156,0.031179275
7.492301667,-0.012673429,0.001125516,0.030308458,0.032870734
7.502297667,-0.012611014,0.001610661,0.022524059,0.025864361
7.512292667,-0.007099995,0.00213205,0.019379427,0.020748922
7.522288667,-0.008737682,0.00280342,0.023270164,0.025014132
7.532284667,-0.004509597,-0.002551414,0.035696667,0.036070739
7.542279667,-0.010387167,-0.004894412,0.0195297,0.022655192
7.552274917,-0.008314224,0.006320968,0.028959505,0.030785287
7.562270917,-0.012390122,0.004800555,0.028361335,0.031319734
7.572265917,-0.012093709,0.003381216,0.028659543,0.031289932
7.582261917,-0.012253978,0.000289117,0.032700554,0.034922339
7.592257917,-0.01139584,-0.00878705,0.032851412,0.035864922
7.602253917,-0.008819118,-0.007243924,0.028960674,0.031128314
7.612248917,-0.005733866,0.006310096,0.022674918,0.024224913
7.622244917,-0.013210532,-0.0006958,0.025219041,0.028478103
7.632240917,-0.008850752,-0.002644495,0.0324041,0.033695027
7.642235917,-0.003996444,0.006284469,0.031504213,0.032372543
7.652231917,-0.006902268,0.002549477,0.026265108,0.027276309
7.662227917,-0.01103111,-0.002051852,0.017432889,0.020731645
7.672222917,-0.004625166,-0.00075726,0.022973126,0.023446324
7.682218917,-0.015021506,-0.00270135,0.020278144,0.025380033
7.692214917,-0.009456277,0.002414991,0.036144564,0.037439055
7.702209917,-0.010473578,-0.006374644,0.026564485,0.029257543
7.712205917,-0.003971954,0.004563112,0.019828493,0.020730836
7.722201917,-0.010758534,-0.00099241,0.026863278,0.028954562
7.732196917,-0.010761284,0.00175971,0.026714759,0.028854465
7.742192917,-0.00121501,-0.00048435,0.028511608,0.028541595
7.752188917,-0.016445819,-0.001798448,0.025219041,0.030161224
7.762184917,-0.01446153,0.001998779,0.027014721,0.030707102
7.772179917,-0.010264225,0.002041729,0.028061957,0.029949899
7.782175917,-0.009598766,-0.003804125,0.022374371,0.024641837
7.792171917,-0.00662432,-0.002541374,0.023571296,0.024615974
7.802166917,-0.012774805,-0.003707345,0.022822267,0.026415827
7.812162917,-0.008556505,0.007275581,0.031655071,0.03358856
7.822158917,-0.017344564,0.002884313,0.025067014,0.030618758
7.832153917,-0.005964895,0.004916092,0.024766467,0.025944668
7.842149917,-0.006117891,0.00181705,0.023717476,0.024561127
7.852145917,-0.006412349,-0.004194043,0.022220589,0.023504527
7.862140917,-0.01505643,-0.000732081,0.021172183,0.025990255
7.872136917,-0.01170137,-0.004413405,0.028656034,0.031266092
7.882132917,-0.008551174,0.00062684,0.033147281,0.034238249
7.892127917,-0.008777968,0.001504114,0.030902535,0.032160251
7.902123917,-0.001783739,-0.002585767,0.025512571,0.025705237
7.912119917,-0.009367057,0.007040852,0.019075372,0.022387165
7.922114917,-0.009136855,0.007595862,0.021470976,0.024539398
7.932110917,-0.006575637,0.004301002,0.023416929,0.024700004
7.942106917,-0.010645468,-0.001131528,0.028506346,0.030450256
7.952101917,-0.009465843,0.008153339,0.02805728,0.030713027
7.962097917,-0.007244476,0.005682169,0.026858016,0.028392296
7.972093917,-0.01008287,-0.00164378,0.021618326,0.023910631
7.982089917,-0.008476836,0.008743004,0.021469806,0.024682979
7.992084917,-0.012428047,0.001179,0.028953658,0.031530314
8.002080917,-0.011438771,0.005473323,0.022667316,0.025973255
8.012076917,-0.013362733,0.004666827,0.02640778,0.029961855
8.022071917,-0.009466948,-0.00105799,0.027756148,0.029345293
8.032067917,-0.005838669,0.006348587,0.031946847,0.033090719
8.042063917,-0.012721586,-0.002577562,0.031198404,0.033790871
8.052058917,-0.00913886,0.007499191,0.021619495,0.024640601
8.062054917,-0.005141996,0.005595447,0.029255374,0.030226248
8.072050917,-0.015598297,-0.010430811,0.023716891,0.030242349
8.082045917,-0.006223329,-0.011288461,0.028506346,0.031285315
8.092041917,-0.010398008,-0.005418213,0.028208138,0.030547907
8.102037917,-0.00585679,-0.002180253,0.031349847,0.031966676
8.112032917,-0.009544268,-0.006324403,0.025361128,0.027825851
8.122028917,-0.012562588,-0.006283592,0.031498366,0.034488392
8.132024917,-0.014144095,-0.001979502,0.040330585,0.042784693
8.142019917,-0.009001939,0.004739132,0.022066807,0.024298935
8.152015917,-0.007979869,0.004231319,0.023412836,0.025094686
8.162011917,-0.012386522,-0.014859758,0.031494273,0.036961163
8.172006917,-0.011980611,0.001516037,0.029849451,0.032199738
8.182002917,-0.006559352,0.002283868,0.021768014,0.022849236
8.191998917,-0.010118835,-0.007060741,0.025361128,0.028203399
8.201993917,-0.012294447,-0.005605241,0.028205799,0.031275218
8.211989917,-0.00750708,0.00081554,0.022815251,0.024032416
8.221985917,-0.018335082,0.005689624,0.026107818,0.032406253
8.231980917,-0.006037054,0.002257857,0.028502253,0.02922195
8.241976917,-0.006128974,0.007157906,0.028204045,0.029736645
8.251972917,-0.004991339,0.005672548,0.026558638,0.027612543
8.261968917,2.38731E-05,-0.005092157,0.022369108,0.022941396
8.271963917,-0.004544694,-0.000981291,0.017879031,0.018473682
8.281959917,-0.012418792,0.001874754,0.027609383,0.030331817
8.291955917,-0.009871311,0.001830215,0.026711835,0.028536198
8.301950917,-0.016456399,0.002448394,0.028208722,0.032749652
8.311946917,-0.003117516,0.001635649,0.032998177,0.033185448
8.321942917,-0.010390374,0.00075356,0.02551608,0.027560806
8.331937917,-0.011265159,-0.000724205,0.020725456,0.023600271
8.341933917,-0.012144749,-0.003738235,0.031503628,0.033969809
8.351929917,-0.016021426,0.005473615,0.025666353,0.030747491
8.361924917,-0.01094094,0.002522087,0.027015306,0.029255629
8.371920917,-0.012552807,0.003896036,0.027014136,0.030041898
8.381916917,-0.011379728,0.002315095,0.033451336,0.035409741
8.391911917,-0.001179128,-0.001961302,0.029708533,0.029796543
8.401907917,-0.0066076,-0.008511975,0.026716513,0.028807745
8.411903917,-0.005200322,0.003217942,0.022975464,0.023775417
8.421898917,-0.006679498,0.002905034,0.026717682,0.027692769
8.431894917,-0.015707083,0.00535573,0.023423361,0.028706274
8.441890917,-0.012104755,0.002599078,0.02237671,0.025573374
8.451885917,-0.005705316,-0.001164226,0.02701706,0.027637431
8.461881917,-0.008305582,-0.007863893,0.027467296,0.029753585
8.471877917,-0.009667837,0.002816348,0.030163447,0.03179988
8.481872917,-0.013675669,-0.002270474,0.028364843,0.031571242
8.491868917,-0.016649919,0.001845326,0.02417239,0.029409683
8.501864917,-0.007396678,0.003456828,0.021925889,0.02339669
8.511859917,-0.008094826,-0.005230545,0.03419978,0.035531813
8.521855917,-0.013012485,0.00296727,0.024769975,0.028136829
8.531851917,-0.0071358,0.002191765,0.025069937,0.026157699
8.541846917,-0.009653036,0.005764861,0.022676087,0.025310465
8.551843167,-0.007135234,0.002863729,0.019832586,0.02127073
8.561839167,-0.011347285,-0.001449305,0.020133718,0.023156596
8.571834167,-0.010463099,0.001218478,0.027918116,0.029839275
8.581830167,-0.010749352,-0.004426662,0.025524266,0.028046962
8.591826167,-0.011746467,-0.001967661,0.021185632,0.024303954
8.601821167,-0.006616138,0.000935737,0.025228397,0.026098293
8.611817167,-0.017222371,-0.002341399,0.02432968,0.029900259
8.621813167,-0.006469012,0.000730582,0.019391121,0.020454766
8.631808167,-0.010080358,0.005559478,0.025979179,0.028415474
8.641804167,-0.010803667,-0.000953343,0.040648674,0.042070688
8.651800167,-0.010275678,-0.000496118,0.028973538,0.030745757
8.661795167,-0.010627177,0.004664287,0.02582949,0.028317045
8.671791167,-0.011980118,-0.001430549,0.029271746,0.031660777
8.681787167,-0.009201334,-0.002551341,0.024032056,0.025859498
8.691782167,-0.01556082,0.00197233,0.026873218,0.031115898
8.701778167,-0.01258636,-0.00055396,0.018340961,0.022251162
8.711774167,-0.011676469,0.004402122,0.017591933,0.021568373
8.721769167,-0.001214056,-0.000529045,0.02851921,0.028549941
8.731765167,-0.015761042,-0.003635059,0.022980727,0.028102276
8.741761167,-0.018817984,0.003949054,0.026722945,0.032921533
8.751756167,-0.014209903,0.003539868,0.034806721,0.037761883
8.761752167,-0.011376178,0.002182391,0.022232868,0.025069517
8.771748167,-0.009990635,-0.000779233,0.029866408,0.031502735
8.781743167,-0.010410022,-0.001630423,0.027771935,0.029703657
8.791739167,-0.008654162,-0.001059013,0.023281859,0.024860832
8.801735167,-0.011467975,0.002733363,0.021186216,0.024245443
8.811730167,-0.007809998,0.000593364,0.018790027,0.020357143
8.821726167,-0.000257844,-0.002972925,0.020586292,0.020801447
8.831722167,-0.008768845,0.00529945,0.030018436,0.031718816
8.841717167,-0.015162374,-0.00102245,0.028222756,0.032054125
8.851713167,-0.005077425,0.004594952,0.028970615,0.029768949
8.861709167,-0.014273803,-0.010934037,0.024329095,0.030252264
8.871705167,-0.013494305,-0.010895117,0.026126529,0.031359135
8.881700167,-0.018017798,-0.001030736,0.023731509,0.029814225
8.891696167,-0.013537629,-0.002520689,0.022832792,0.02666379
8.901691167,-0.008053617,-0.000807656,0.024029717,0.025356269
8.911687167,-0.016990099,0.003042297,0.019988122,0.026409166
8.921683167,-0.010779433,0.006743265,0.031963804,0.034399892
8.931678167,-0.004948983,0.00739544,0.017145206,0.019316911
8.941674167,-0.007237885,-0.002964703,0.029269992,0.030297011
8.951670167,-0.01328217,-0.00316338,0.02537867,0.028818395
8.961665167,-0.016781984,-0.007500342,0.029720812,0.034945913
8.971661167,-0.008010526,-0.001445998,0.025680386,0.026939593
8.981657167,-0.007406339,0.002217785,0.024930773,0.026102028
8.991652167,-0.015637264,-0.001757527,0.026725869,0.03101427
9.001648167,-0.009759633,-0.000135619,0.028671822,0.030287658
9.011644167,-0.014008883,0.003886133,0.028073067,0.031614046
9.021639167,-0.007050824,-0.005228599,0.029569954,0.030845333
9.031635167,-0.011511884,-0.004956274,0.025827736,0.028708188
9.041631167,-0.011920597,0.000191889,0.023880029,0.026690696
9.051626167,-0.001673094,0.0026145,0.023283028,0.023489024
9.061622167,-0.014667941,-0.000610212,0.023281274,0.027523419
9.071618167,-0.006903036,0.004508825,0.023280689,0.024697609
9.081613167,-0.00678645,0.012970623,0.02133532,0.025874483
9.091609167,-0.009388913,0.003726019,0.022983651,0.02510544
9.101605167,-0.006215766,0.006161805,0.033311588,0.034442205
9.111600167,-0.003328235,-0.006402007,0.018043923,0.019433116
9.121596167,-0.008495744,-0.009018142,0.022235792,0.025454567
9.131592167,-0.009715606,-0.001751205,0.031966728,0.033456411
9.141587167,-0.006294066,0.006075623,0.026577349,0.027980064
9.151583167,-0.010821307,-0.007369803,0.029121473,0.031929217
9.161579167,-0.008600635,-0.00501248,0.030768633,0.032338904
9.171574167,-0.006119826,-0.005141594,0.026128283,0.027323533
9.181570167,-0.010537149,-0.006274583,0.035559842,0.037615213
9.191566167,-0.011082027,0.001238924,0.028223925,0.030346931
9.201561167,-0.006640201,-0.003191401,0.023434471,0.024565255
9.211557167,-0.008648694,-0.006107033,0.012955091,0.016731113
9.221553167,-0.01030395,0.000220029,0.033461276,0.035012524
9.231548167,-0.014012158,0.000891572,0.029420266,0.032598888
9.241544167,-0.008436621,0.00264719,0.029270577,0.030576966
9.251540167,-0.011261559,0.001460159,0.028670068,0.030837113
9.261535167,-0.00166996,-0.00363494,0.014150262,0.014704811
9.271531167,-0.004183322,0.002907656,0.026422983,0.026909639
9.281527167,-0.017990048,0.018482711,0.033156636,0.04200732
9.291522167,-0.00747218,-0.008647539,0.026122436,0.028513068
9.301518167,-0.003740724,0.014243507,0.025671616,0.029595647
9.311514167,-0.011243748,-0.012826909,0.027020568,0.03195407
9.321509167,0.005745166,0.003261038,0.023578312,0.024486284
9.331505167,-0.014582842,-0.006773963,0.026574426,0.03106036
9.341501167,-0.012013221,-0.00409179,0.029719058,0.032315362
9.351496167,0.000619512,-0.009927439,0.030018436,0.031623478
9.361492167,-3.6456E-05,-0.001724307,0.026274464,0.026331008
9.371488167,-0.014868935,-0.022274191,0.016995517,0.031718645
9.381483167,-0.004574092,0.018375962,0.035856881,0.040550144
9.391479167,-0.007103558,-0.007998954,0.020588631,0.023202059
9.401475167,-0.001771706,-0.002857927,0.009062015,0.009665754
9.411470167,-0.007673954,0.006443668,0.03361038,0.035072327
9.421466167,-0.002685343,0.001903451,0.026425906,0.026630109
9.431462167,-0.004737464,-0.002622778,0.018191857,0.01898068
9.441457167,-0.00625486,-0.003943317,0.030016682,0.030913981
9.451453167,-0.001196541,-0.008249234,0.021633528,0.023183855
9.461449167,-0.009595432,0.001047145,0.024327341,0.026172282
9.471444167,-0.006343679,0.000486863,0.03256139,0.033177152
9.481440167,-0.006134097,-0.004567909,0.025973917,0.027076508
9.491436167,-0.009100328,-0.007171692,0.028669483,0.030922296
9.501431167,-0.001899422,-0.001767193,0.029417342,0.029531522
9.511427167,-0.003413346,0.003617417,0.023878275,0.024390749
9.521423167,-0.011963298,0.000636314,0.01908999,0.022537815
9.531418167,-0.006225508,0.001920737,0.025976256,0.026780815
9.541414167,-0.00606951,-0.007353787,0.037502287,0.038695461
9.551409417,-0.011959027,-0.010205182,0.029119719,0.033092629
9.561404417,-0.005172803,0.007801501,0.027771935,0.029307025
9.571400417,-0.005595048,-0.003677451,0.029122642,0.029882378
9.581395417,-0.005759804,-0.007925243,0.028226264,0.0298782
9.591391417,-0.004069308,-0.006160261,0.032716926,0.033539608
9.601387417,-0.010329518,-0.002997749,0.032118171,0.033871261
9.611382417,-0.009422722,-0.003759285,0.024781085,0.026777268
9.621378417,-0.003280893,-0.004362434,0.022536339,0.023187963
9.631374417,-0.007170737,-0.010998293,0.020292177,0.024169286
9.641369417,-0.008213691,0.002294776,0.024782254,0.026208602
9.651365417,-0.011633741,-0.000136185,0.021038282,0.024041044
9.661361417,-0.011018267,-0.006011038,0.024930773,0.027911973
9.671356417,-0.010415504,-0.000961392,0.03525988,0.036778609
9.681352417,-0.002995816,-0.002264188,0.019244941,0.019607886
9.691348417,-0.001629715,-0.009909751,0.017448676,0.020132448
9.701343417,-0.004242356,-0.00597231,0.030172217,0.031048813
9.711339417,-0.012790204,-0.008254807,0.025978594,0.030110107
9.721335417,-0.003311141,-0.002723852,0.02298482,0.023381295
9.731330417,-0.009070806,0.003818186,0.015950035,0.018741976
9.741326417,-0.004160253,-0.002301062,0.033313926,0.033651453
9.751322417,-0.003780399,-0.005089307,0.024633735,0.025436457
9.761317417,-0.007758154,-0.00060769,0.030621284,0.03159464
9.771313417,-0.008238983,-0.008519996,0.031371481,0.033535668
9.781309417,-0.009056883,-0.007389912,0.03047218,0.032637274
9.791304417,-0.00427942,-0.00509562,0.023885876,0.02479544
9.801300417,0.001798816,0.004192106,0.02927467,0.029627956
9.811296417,-0.001936753,0.005528862,0.031071519,0.03161896
9.821291417,-0.010138563,0.012457164,0.02523249,0.029910699
9.831287417,-0.00940113,0.004308603,0.029721982,0.031469692
9.841282417,-0.002787868,-0.002278961,0.021489102,0.021788699
9.851278417,0.001589538,0.003729372,0.030769803,0.031035715
9.861274417,-0.009198534,-0.000411681,0.021190894,0.023104902
9.871269417,-0.000352532,-0.007426329,0.024785178,0.025876238
9.881265417,-0.006607153,-0.004168224,0.02269012,0.023997294
9.891261417,-0.010102033,-0.006190922,0.027182536,0.029652468
9.901256417,-0.006897759,-0.002043958,0.022843902,0.023949963
9.911252417,-0.01121665,-0.001186802,0.028083592,0.030264003
9.921248417,-0.015346324,-0.00830385,0.019552504,0.026206183
9.931243417,-0.010927505,-0.007769588,0.020900872,0.024831902
9.941239417,-0.011883246,-0.003082515,0.02689076,0.029560555
9.951235417,-0.010377031,-0.004590448,0.025244184,0.027677135
9.961230417,-0.008484104,0.000315083,0.021948693,0.023533475
9.971226417,-0.0076712,-0.00115329,0.023595269,0.024837756
9.981222417,-0.007235733,0.002105126,0.028533243,0.02951158
9.991217417,-0.001636894,-0.00273128,0.028232696,0.028411695
10.00121342,-0.006727934,0.00252269,0.024939544,0.025953996
10.01120942,-0.00838995,-0.005503208,0.023441488,0.025498625
10.02120442,-0.010075056,-0.009376202,0.023440318,0.027182135
10.03120042,-0.013206581,-0.002580413,0.017900666,0.022394333
10.04119642,-0.007288353,-0.006537434,0.031670859,0.033149682
10.05119142,-0.009961097,0.00964659,0.026131791,0.029582946
10.06118742,-0.008250599,0.002139268,0.018497667,0.020366947
10.07118242,-0.015065653,0.00254765,0.024336112,0.028735183
10.08117842,-0.004887806,-0.005448152,0.031369727,0.032212308
10.09117442,-0.004061264,-0.005904783,0.022238131,0.023364391
10.10116942,-0.00532971,-0.008716837,0.032117001,0.03370298
10.11116542,-0.004736971,-0.00610685,0.021340583,0.022696982
10.12116142,-0.015158372,-0.003080112,0.024334357,0.028834429
10.13115642,-0.003375529,0.002183195,0.027926887,0.02821474
10.14115242,-0.009944042,-0.000997106,0.027627509,0.029379542
10.15114842,-0.005890994,-0.000500841,0.026429415,0.027082626
10.16114342,-0.001141765,-0.003984896,0.019093498,0.019538288
10.17113942,-0.009298658,-0.008097818,0.027326962,0.029980036
10.18113542,-0.006539535,0.002750612,0.016697894,0.01814252
10.19113042,-0.012081263,0.008726083,0.015051318,0.021181209
10.20112642,-0.011087189,0.000395656,0.020589216,0.023387991
10.21112242,-0.000540931,0.007372818,0.027473143,0.028450389
10.22111742,-0.000272256,-0.001458862,0.033460692,0.033493586
10.23111342,-0.018902271,-0.001695665,0.022535169,0.029461924
10.24110842,-0.006773764,0.002956517,0.017296064,0.018809006
10.25110442,-0.009433697,-0.003250056,0.021338829,0.023556382
10.26110042,-0.003199341,-0.00509128,0.023883537,0.02462885
10.27109542,-0.003969912,0.005197553,0.022686612,0.02361053
10.28109142,-0.005129461,-0.008864452,0.025830075,0.027786375
10.29108742,-0.004267095,-0.000383687,0.033015134,0.033291957
10.30108242,-0.010285791,-0.00173761,0.023585329,0.025789233
10.31107842,-0.011847987,0.000964032,0.019989876,0.023257242
10.32107442,-0.004684001,-0.00197561,0.026275633,0.026762881
10.33106942,-0.009947596,0.001062165,0.0295682,0.031214761
10.34106542,-0.003043663,0.000195461,0.027473143,0.027641919
10.35106142,-0.006449831,-0.004582134,0.025526605,0.026724592
10.36105642,-0.006662973,0.006308479,0.027771935,0.029248462
10.37105242,-0.002388597,-0.003200126,0.023582405,0.023918111
10.38104742,-0.009621698,0.009322636,0.025977425,0.029228671
10.39104342,-0.014653479,-5.57404E-05,0.028523303,0.032067216
10.40103942,-0.005614382,0.000742286,0.029570539,0.030107957
10.41103442,-0.007367295,-0.000899366,0.038551862,0.039259801
10.42103042,-0.003881087,-0.002423936,0.023433301,0.023875886
10.43102642,-0.004999264,0.00605333,0.022087272,0.023441055
10.44102142,-0.015714849,0.002977813,0.021338244,0.026667293
10.45101742,-0.006404049,-0.002367647,0.02014015,0.021266011
10.46101342,-0.012120543,-0.005104564,0.02208201,0.025701737
10.47100842,-0.014347267,-0.002856255,0.0144473,0.02056032
10.48100442,-0.012984544,-0.005907241,0.023429208,0.027430306
10.49100042,-0.015167232,0.000310039,0.018191273,0.023686778
10.50099542,-0.005638406,-0.003486777,0.023281859,0.024207317
10.51099142,0.000194865,-0.003450095,0.026124775,0.026352324
10.52098642,-0.005009177,-0.002998142,0.028367767,0.028962232
10.53098242,-0.006661824,0.007813598,0.028067805,0.029887018
10.54097842,-0.011145193,-0.001346586,0.02746905,0.029674523
10.55097342,-0.008976042,-0.000776967,0.027168503,0.028623427
10.56097354,-0.008095698,0.00398675,0.034952901,0.036099028
10.57096954,0.000196672,-0.001644255,0.027317607,0.027367753
10.58096454,-0.015143587,0.00200734,0.022377294,0.027094297
10.59096054,-0.005052433,0.001389847,0.011597368,0.01272626
10.60095654,-0.006518682,-0.000202761,0.024020362,0.02489
10.61095154,-0.003523066,0.00291195,0.024469428,0.024892657
10.62094754,0.000669513,-0.007077132,0.02955826,0.030401065
10.63094354,-0.004120489,0.001691006,0.033299308,0.033595861
10.64093854,-0.009667734,0.009919884,0.024168296,0.027856341
10.65093454,-0.004735178,0.006393684,0.016835303,0.018620648
10.66092954,-0.011005785,-0.006014601,0.028511024,0.031147732
10.67092554,-0.010347438,-0.001059296,0.030755185,0.03246649
10.68092154,-0.004258897,0.007159596,0.026414212,0.027696726
10.69091654,-0.011199844,-0.008143052,0.036291913,0.038843903
10.70091254,-0.007198836,-0.001631538,0.026713005,0.027714072
10.71090854,-0.005545789,-0.004484348,0.024166542,0.025196963
10.72090354,-0.005153229,-0.001065509,0.030753431,0.031200394
10.73089954,-0.001509313,-0.002694434,0.03255145,0.032697628
10.74089554,-0.008801526,-0.000945988,0.027163825,0.028569829
10.75089054,-0.005882559,0.001129764,0.033001685,0.033540902
10.76088654,-0.002453298,-0.003273079,0.019829078,0.020246581
10.77088154,-0.00956763,0.004304592,0.030458146,0.032214403
10.78087754,-0.008458856,0.005375108,0.021925889,0.024107855
10.79087354,-0.006334101,0.002436334,0.025968654,0.026840782
10.80086854,-0.007776192,-0.001717208,0.025670446,0.026877309
10.81086454,-0.007316712,-0.004232105,0.025371069,0.026742029
10.82086054,-0.002008637,-0.001684318,0.027466126,0.027590934
10.83085554,-0.00771412,-0.003226466,0.027167333,0.028425019
10.84085154,-0.008483714,-0.007195282,0.027018229,0.029218662
10.85084754,-0.007817956,-0.007060833,0.032105892,0.03379
10.86084254,0.004527874,0.000841213,0.02716441,0.027552031
10.87083854,-0.003511239,0.004406809,0.033451336,0.033922568
10.88083354,-0.009596829,0.001213727,0.0237204,0.025616979
10.89082954,-0.007010396,0.002962254,0.022521721,0.023772852
10.90082554,-0.001325577,0.005652659,0.028209307,0.028800603
10.91082054,-0.005107643,0.000515304,0.01338837,0.014338828
10.92081654,-0.010000283,-0.003831553,0.025962222,0.02808422
10.93081254,-0.007720051,-0.00330576,0.02745794,0.028713511
10.94080754,-0.001279282,-0.001269531,0.015181711,0.015288316
10.95080354,-0.00746022,0.002171263,0.017876108,0.019491652
10.96079954,-0.011309584,-0.006447441,0.02805611,0.030929299
10.97079454,-0.00724946,-0.009117435,0.020121439,0.02324983
10.98079054,-0.005337268,-0.000782321,0.028504007,0.029009944
10.99078554,-0.006563207,0.002965178,0.024163619,0.025214052
11.00078154,-0.006906519,0.005565453,0.02521027,0.026725119
11.01077754,-0.005626157,0.002936581,0.023413421,0.024258306
11.02077254,-0.001100245,-0.000863789,0.028805723,0.028839666
11.03076854,-0.008962644,-0.001278411,0.025514325,0.027072941
11.04076454,-0.010688637,0.004243873,0.02731059,0.029633187
11.05075954,-0.003698702,-0.00568945,0.031799498,0.032515508
11.06075554,-0.004073888,-0.001497901,0.023117552,0.023521511
11.07075154,-0.000707566,-0.002998068,0.018925683,0.019174737
11.08074654,-0.000499092,2.76829E-06,0.028954827,0.028959128
11.09074254,-0.008408954,0.000296865,0.028954242,0.030152061
11.10073754,-0.003729149,0.002759447,0.027907591,0.028290541
11.11073354,-0.003371984,0.000752628,0.017729343,0.018062843
11.12072954,-0.006244187,0.003567496,0.019077126,0.020387585
11.13072454,-0.002018555,-0.001683203,0.028507515,0.028628415
11.14072054,-0.006709228,0.004082837,0.021323041,0.022723454
11.15071654,-0.003764405,0.00095179,0.018929776,0.019323899
11.16071154,-0.011423454,0.001410367,0.02551608,0.027992048
11.17070754,-0.009571316,0.005542457,0.020576937,0.023361063
11.18070254,-0.005757753,0.005092212,0.025517249,0.02664981
11.19069854,-0.004757217,0.002813936,0.025220211,0.02581876
11.20069454,-0.005363427,0.006291083,0.025970408,0.027254471
11.21068954,-0.008009132,-0.005069847,0.018186595,0.020508578
11.22068554,-0.004297039,0.003256954,0.022528737,0.02316498
11.23068154,-0.005134102,-0.0030135,0.020732473,0.021570248
11.24067654,-0.002297239,-0.002960299,0.028667144,0.028910998
11.25067254,-0.002289591,-0.001786434,0.020883915,0.021084864
11.26066854,-0.002760034,-0.001046862,0.027022907,0.027183657
11.27066354,-0.00377226,-0.004685283,0.031364465,0.031936053
11.28065954,0.005187768,-0.004587844,0.029120303,0.029932479
11.29065454,0.004320585,-0.009049699,0.027024077,0.028824733
11.30065054,-0.003651627,-0.004149623,0.034808475,0.035244626
11.31064654,-0.006044175,0.005038582,0.019840772,0.021344217
11.32064154,0.001364103,0.000663083,0.022684858,0.022735506
11.33063754,-0.009688928,0.010177453,0.026877311,0.030328959
11.34063354,-0.005178952,0.002832875,0.024931358,0.025620682
11.35062854,-0.003693229,-0.005040282,0.035859804,0.036400136
11.36062454,-0.000771421,-0.000443164,0.029875179,0.029888423
11.37061954,0.000515939,0.001869675,0.02688082,0.026950702
11.38061554,-0.010267676,-0.000647616,0.025682141,0.027666169
11.39061154,-0.000518682,-0.000842849,0.031819963,0.031835349
11.40060654,-0.003609185,0.003150324,0.031222377,0.031587776
11.41060254,-0.003158013,0.005888192,0.025084555,0.025959175
11.42059854,-0.004179434,0.000832808,0.034065294,0.034330824
11.43059354,-0.006075504,0.001699146,0.032117586,0.032731303
11.44058954,-0.004947309,0.00050467,0.031369143,0.031760882
11.45058454,-0.008493131,-0.004910483,0.023585914,0.025544891
11.46058054,-0.00110821,-0.000611135,0.028226264,0.028254621
11.47057654,0.001204919,0.000786679,0.023884706,0.023928015
11.48057154,-0.005058531,-0.002028947,0.030919492,0.031396183
11.49056754,-0.004483188,0.001109975,0.023884706,0.02432715
11.50056354,-0.007963958,0.004150993,0.0334642,0.034648348
11.51055854,-0.005658606,-0.009241881,0.022684858,0.025140305
11.52055454,-0.001290248,0.001571055,0.032114663,0.032178945
11.53055054,-0.001974388,-0.001006288,0.025379255,0.02547582
11.54054554,-0.001968616,0.004718173,0.020736566,0.021357475
11.55054154,0.002180646,-0.005766369,0.022531076,0.023359273
11.56053279,-0.002108118,-0.0084804,0.018190688,0.020180745
11.57052879,-0.010586494,0.002369877,0.028820341,0.030794516
11.58052479,-6.01235E-05,0.001292134,0.022833377,0.022869988
11.59051979,-0.008266483,-0.006297104,0.027475482,0.029374995
11.60051579,-0.001632449,-0.005315484,0.025827152,0.026418952
11.61051179,-0.003335279,-0.002399524,0.03361038,0.033860589
11.62050679,-0.008029696,-0.001687835,0.018642093,0.020367927
11.63050279,-0.012043307,0.004846154,0.033012795,0.035473526
11.64049779,-0.009022482,-0.004063641,0.026127698,0.027938772
11.65049379,-0.000270461,0.001664191,0.023882368,0.023941808
11.66048979,-0.007129764,0.000211925,0.022833962,0.023922129
11.67048479,-0.008114083,0.008323977,0.023282443,0.02602305
11.68048079,-0.001946433,-0.003341592,0.035406645,0.035617206
11.69047679,-0.011644776,0.002459732,0.027773105,0.030215831
11.70047179,-0.002956026,-0.000589564,0.030915399,0.031061995
11.71046779,-0.010232006,0.00131365,0.020437773,0.022893715
11.72046279,-0.001516304,-0.007788902,0.015796253,0.017677324
11.73045879,-0.009173413,-0.00170408,0.021485594,0.023424051
11.74045479,0.00063747,0.002952935,0.027922209,0.028085155
11.75044979,-0.00218251,-0.003208002,0.040196684,0.040383512
11.76044579,-0.001522752,-0.003818807,0.032711663,0.032969
11.77044179,-0.008382048,0.00171614,0.021187971,0.022850251
11.78043679,-0.010131493,0.004934538,0.01654879,0.02002147
11.79043279,-0.005206607,-0.002484756,0.027622831,0.028218852
11.80042779,-0.007384385,-0.009570339,0.032561975,0.034733308
11.81042379,-0.009406048,-0.006184737,0.029117965,0.031218273
11.82041979,-0.006616444,-0.007489973,0.015196913,0.018188546
11.83041479,-0.000945625,-0.004190937,0.02612536,0.026476264
11.84041079,-0.00335246,0.001357705,0.024029133,0.024299827
11.85040679,0.000942557,0.002503641,0.020736566,0.020908414
11.86040179,-0.002034904,-0.004360068,0.027172596,0.027595307
11.87039779,0.000134696,0.001359523,0.025675709,0.02571203
11.88039279,0.002872143,-0.005064474,0.029268238,0.029841713
11.89038879,-0.004560614,-0.008579245,0.024926096,0.026752811
11.90038479,-0.002790682,-0.000735598,0.033010456,0.033136373
11.91037979,-0.004190124,0.000483345,0.028070728,0.028385851
11.92037579,-0.005628288,0.001284387,0.024776992,0.025440648
11.93037179,-0.011579154,0.002662539,0.021033604,0.024157368
11.94036679,-0.007862175,-0.003808063,0.026872049,0.028256365
11.95036279,-0.000995383,0.003594576,0.023729171,0.024020518
11.96035779,0.002461998,0.00636432,0.032109985,0.032827079
11.97035379,-0.005326466,-0.003529708,0.02926356,0.029953064
11.98034979,-0.012117509,-0.002107885,0.022825776,0.025928618
11.99034479,-0.001551093,0.000489914,0.021327719,0.021389659
12.00034079,-0.005656416,-0.001615366,0.032405269,0.032934874
12.01033579,-0.009316022,-0.00325023,0.02581955,0.027640576
12.02033179,-0.001043632,-0.00487582,0.026418305,0.026884747
12.03032779,-0.008201366,0.005948875,0.026268032,0.028154236
12.04032279,-0.000920731,0.00157714,0.020281067,0.020363124
12.05031879,-0.001665406,0.003748166,0.028511608,0.028805106
12.06031479,-0.005158327,-0.001650011,0.027613476,0.028139562
12.07030979,0.002470195,-0.007105226,0.027463787,0.028475353
12.08030579,-0.004930169,0.004830668,0.035394951,0.036061676
12.09030079,-0.00623157,0.003767233,0.023270164,0.024382884
12.10029679,-0.001554359,-0.004037895,0.026862693,0.027208913
12.11029279,-0.002822746,-0.003187436,0.034347714,0.034610592
12.12028779,-0.005382919,0.002155375,0.027463202,0.028068647
12.13028379,-0.003274112,-0.006105854,0.012192614,0.014023591
12.14027979,0.002324972,0.006431544,0.02386658,0.02482708
12.15027479,-0.006204709,-0.001294373,0.025213194,0.025997672
12.16027079,-0.006377599,-0.01379804,0.028654865,0.032437031
12.17026579,-0.00392636,-0.006384301,0.027305912,0.028315869
12.18026179,-0.004324352,-0.001024304,0.034191594,0.034479186
12.19025779,0.003852408,-0.001921971,0.024011006,0.024393922
12.20025279,-0.005482722,0.004038233,0.030448206,0.031200334
12.21024879,-0.003096585,-0.000895766,0.02985179,0.030025333
12.22024379,-0.005840108,-0.001836921,0.027157393,0.027838914
12.23023979,-0.002014704,-0.001599012,0.022817005,0.022961524
12.24023579,-0.00570358,0.003209811,0.022667316,0.023593239
12.25023079,-0.003375922,2.81763E-05,0.02281759,0.023065993
12.26022679,0.001176535,0.009748204,0.030151752,0.031710249
12.27022279,0.002139699,-0.000936843,0.031649809,0.031735885
12.28021779,0.002064398,-4.79928E-05,0.027008289,0.027087114
12.29021379,-0.005140813,-2.43939E-05,0.018625721,0.019322164
12.30020879,-0.007987443,0.005823754,0.019224476,0.021617026
12.31020479,-0.003720524,0.004408262,0.020871636,0.021654105
12.32020079,-0.003766527,-0.001811879,0.023864826,0.024228074
12.33019579,-0.002570651,0.00296537,0.017129418,0.017573236
12.34019179,-0.002738623,-0.001737875,0.028056695,0.028243555
12.35018779,-0.002239803,-0.003158081,0.025662845,0.025953262
12.36018279,0.002299328,-0.004610402,0.027907591,0.028379153
12.37017879,0.002114582,0.000269785,0.028806893,0.028885659
12.38017379,-0.006123535,-0.002287714,0.02266907,0.023592755
12.39016979,0.00175075,-0.006007174,0.027009459,0.027724756
12.40016579,0.004186172,0.001970274,0.029553582,0.029913546
12.41016079,-0.002464693,0.002812429,0.027159732,0.027415972
12.42015679,-0.005080436,0.005943293,0.028057864,0.029126917
12.43015179,0.003027729,-0.005025828,0.019374164,0.020243131
12.44014779,-0.000577294,-0.00316941,0.022818174,0.023044468
12.45014379,9.65636E-05,-0.005408629,0.039283934,0.039654634
12.46013879,-0.00468817,-0.003878559,0.025663429,0.02637487
12.47013479,-0.002178284,-0.00479299,0.025664014,0.02619846
12.48013079,-0.006696839,-0.009142542,0.027759656,0.029983866
12.49012579,-0.009108571,0.000484012,0.029703271,0.031072249
12.50012179,-0.001964253,0.005278903,0.026859185,0.027443413
12.51011679,0.007027031,0.004539641,0.032546772,0.033604759
12.52011279,-0.005722295,0.000668282,0.027756733,0.028348324
12.53010879,-0.00690018,-0.000613409,0.025213194,0.026147541
12.54010379,-0.005943469,-0.009374622,0.026710666,0.028925214
12.55009979,-0.005701899,-0.00523429,0.025663429,0.026805243
12.56009492,-0.006884434,-0.003642139,0.020872221,0.022278021
12.57009092,0.00021399,0.001009083,0.028657789,0.028676347
12.58008692,-0.005723912,0.003234296,0.01847954,0.019614211
12.59008192,-0.004369643,0.002324122,0.022371447,0.022912376
12.60007792,-0.008547314,0.000925039,0.032700554,0.03381181
12.61007392,-0.007458932,-0.000534536,0.031652148,0.032523528
12.62006892,-0.000897511,0.000488919,0.020126116,0.02015205
12.63006492,-0.001580247,-0.005540712,0.025662845,0.026301678
12.64005992,-0.006227234,-0.007735154,0.023418683,0.025437095
12.65005592,-0.005420586,0.000682471,0.024764712,0.025360195
12.66005192,-0.00108147,0.005395189,0.023267241,0.023909039
12.67004692,0.001261831,0.005151543,0.02386658,0.024448809
12.68004292,-0.001592051,-0.000696385,0.035093819,0.035136814
12.69003792,3.41514E-05,-0.007135595,0.028806893,0.029677516
12.70003392,0.002618486,-0.004928837,0.021173353,0.021896593
12.71002992,-0.004258993,-0.004055026,0.026562731,0.027205899
12.72002492,-0.000611808,0.002814311,0.025362883,0.025525878
12.73002092,0.002158509,-0.00289069,0.017128834,0.017504633
12.74001592,0.001527309,-0.001928969,0.01757673,0.0177481
12.75001192,-0.002907382,0.002819619,0.021169844,0.02155378
12.76000792,0.002606517,-0.003085448,0.026557469,0.026862857
12.77000292,0.003219075,0.002055506,0.027156224,0.027423494
12.77999892,0.003304986,-0.003504273,0.029848282,0.030234463
12.78999492,-0.005024766,0.002348077,0.036132869,0.036556066
12.79998992,-0.004972746,-0.003451301,0.023560771,0.024325904
12.80998592,0.000683873,-0.004919062,0.024456564,0.024955728
12.81998092,0.001588926,-0.010172675,0.030292085,0.031994038
12.82997692,-0.004318986,-0.000357521,0.023406404,0.023804227
12.83997292,0.000536249,-0.005863679,0.023704612,0.024424965
12.84996792,0.001738654,-0.008553855,0.020858188,0.022610956
12.85996392,-0.005882425,0.011863014,0.029990954,0.03278401
12.86995892,-0.010724595,-0.006985586,0.026547529,0.029471794
12.87995492,-0.005548211,0.000630184,0.025799085,0.02639645
12.88995092,-0.004940507,-0.003070528,0.025050057,0.025716572
12.89994592,-0.003388895,0.005531758,0.013825157,0.01527154
12.90994192,-0.007519903,-0.000483903,0.016969205,0.018567095
12.91993692,-0.004600678,-0.002574502,0.026698387,0.027213933
12.92993292,-0.00386403,0.00319512,0.029541303,0.02996378
12.93992892,-0.000275993,-0.003220098,0.029391614,0.029568771
12.94992392,0.000821445,-0.004399189,0.034929512,0.035215032
12.95991992,0.001077662,-0.000795532,0.029091652,0.029122473
12.96991592,0.001050653,-0.000348074,0.023256716,0.023283038
12.97991092,-0.001780756,0.011197692,0.028797537,0.030949274
12.98990692,-0.003863367,0.004122726,0.022061545,0.022773542
12.99990192,-0.00647282,-0.000900882,0.018019364,0.01916785
13.00989792,-0.005012516,0.004216537,0.014127458,0.015572077
13.01989392,1.38986E-05,0.00843333,0.02789882,0.02914559
13.02988892,0.002184355,-0.00254871,0.035384426,0.035543282
13.03988492,-0.006810017,-0.001174459,0.016972128,0.018325087
13.04987992,-0.00367067,-0.000486397,0.019665356,0.020010912
13.05987592,0.002097264,0.005007062,0.022657961,0.023299192
13.06987192,-0.005862338,-0.002341106,0.033285275,0.033878567
13.07986692,-0.010678048,-0.003912335,0.024754187,0.027241455
13.08986292,-0.003084009,-0.002351038,0.022807649,0.023134981
13.09985792,-0.00478336,-5.72936E-05,0.024602745,0.025063497
13.10985392,-0.001403574,-9.85164E-05,0.022955584,0.022998664
13.11984992,-0.005635583,-0.00083374,0.029691576,0.030233171
13.12984492,-0.001246932,0.005638132,0.02654519,0.02716598
13.13984092,-0.000676998,0.005504715,0.028940209,0.029466861
13.14983592,-0.001433032,-0.000129799,0.027893558,0.027930646
13.15983192,-0.004531163,0.001702682,0.025497953,0.025953346
13.16982792,0.003156309,0.001648696,0.026097293,0.026339119
13.17982292,-0.003425637,-0.002127893,0.031037605,0.031298496
13.18981892,0.002006806,-0.008078139,0.026097878,0.027393116
13.19981392,-0.000219746,-0.000626356,0.020709668,0.020720303
13.20980992,-0.003047155,-0.000811795,0.020109159,0.020354912
13.21980592,-0.002300315,-0.001324696,0.026843982,0.026974908
13.22980092,-0.009342677,-0.004687037,0.01891165,0.021607971
13.23979692,-0.00253099,-0.001214266,0.028792859,0.028929381
13.24979192,-0.010678263,0.001120043,0.028494651,0.030450369
13.25978792,-0.005705133,0.000652056,0.028794613,0.029361599
13.26978392,0.005524267,-5.54755E-05,0.025500877,0.026092438
13.27977892,-0.008083684,-0.003232624,0.026698387,0.028082017
13.28977492,-0.007023787,0.001044194,0.017717648,0.019087666
13.29976992,-0.008162512,0.005841359,0.031190218,0.032765497
13.30976592,-0.006264044,0.001205458,0.02220831,0.023106285
13.31976192,0.000207821,0.008750906,0.023405235,0.024988529
13.32975692,-0.006042673,0.002633294,0.020261772,0.021306983
13.33975292,-0.004579322,0.006726016,0.026249905,0.027482122
13.34974892,-0.001539933,-0.007076748,0.026549867,0.027519942
13.35974392,-0.001982103,-0.013316485,0.024155433,0.027653977
13.36973992,-0.004332207,0.002799144,0.023407574,0.023969099
13.37973492,0.00093544,-0.002106277,0.013377845,0.01357491
13.38973092,-0.003598817,0.00208487,0.01741944,0.017909078
13.39972692,-3.00606E-05,0.009035017,0.019666525,0.021642658
13.40972192,-0.006208263,-0.004495842,0.023560186,0.024775744
13.41971792,-0.001755814,-0.002315406,0.029546565,0.029689114
13.42971292,-0.007594583,-0.003265186,0.021162828,0.022720132
13.43970892,0.002791612,-0.004060087,0.020712007,0.021290013
13.44970492,0.000605995,0.003482209,0.028196443,0.028417115
13.45969992,-0.007003416,-0.006285702,0.026251659,0.027887408
13.46969592,-0.011377238,0.001501373,0.017569129,0.020984994
13.47969092,-0.006350999,0.010394924,0.023406404,0.026386538
13.48968692,-0.00311388,-0.0057342,0.034331342,0.034945935
13.49968292,-0.008029511,-0.007687645,0.017566205,0.020788085
13.50967792,-0.003637585,0.006173445,0.01696862,0.018419487
13.51967392,-0.003281576,0.007196552,0.025501462,0.026699881
13.52966892,-0.003734797,0.001204536,0.029544811,0.029804286
13.53966492,-0.002820341,-0.002569614,0.026402518,0.026676772
13.54966092,-0.001072468,-0.004721362,0.025206177,0.02566696
13.55965604,-0.005794467,-0.000283288,0.033141434,0.033645367
13.56965204,-0.006269994,0.006225795,0.032691198,0.033864255
13.57964704,-0.006810474,-0.004783379,0.032690613,0.033733358
13.58964304,0.002368853,-0.008070254,0.021165166,0.02277509
13.59963904,-0.009980363,-0.00050022,0.025055904,0.026975103
13.60963404,-0.005747187,-0.004431358,0.03194217,0.03275621
13.61963004,-0.005774404,0.002957677,0.021762752,0.022709226
13.62962504,-0.002614779,-0.000457481,0.029096915,0.029217748
13.63962104,-0.002599001,0.002112736,0.029398046,0.029588234
13.64961704,-0.000413147,0.003890737,0.019519175,0.019907454
13.65961204,-0.004839354,0.003477348,0.025206177,0.025901017
13.66960804,0.000174982,0.002847247,0.022512365,0.022692378
13.67960304,-0.00303079,0.003613725,0.028498744,0.028886383
13.68959904,-0.012320682,-0.002141497,0.036431077,0.03851764
13.69959504,-0.002454602,-0.004641191,0.024006329,0.024573757
13.70959004,0.00032511,-0.003809424,0.030592048,0.030830031
13.71958604,-0.003380963,0.006864576,0.032238039,0.033133736
13.72958104,-0.004718027,0.008116292,0.017268582,0.01965548
13.73957704,-0.012183396,0.000869262,0.023254961,0.026267546
13.74957304,0.001477628,-0.000675966,0.020410876,0.020475453
13.75956804,-0.000630357,-0.007260195,0.017866167,0.019295277
13.76956404,-0.007611325,-0.006353128,0.021011385,0.023233011
13.77955904,-0.006363251,-0.008679388,0.018765469,0.021632512
13.78955504,-0.013090098,-0.001396571,0.017718818,0.022073911
13.79955104,0.002676835,0.000290479,0.024903291,0.025048428
13.80954604,-0.005938629,-0.006475353,0.031639869,0.032837156
13.81954204,-0.005108454,-0.005431543,0.027298896,0.028298899
13.82953704,-0.003707354,-0.002682721,0.024156602,0.024586234
13.83953304,0.006089007,-0.003808758,0.029693915,0.030550143
13.84952904,0.000196192,0.000446928,0.02804617,0.028050417
13.85952404,-0.011442037,0.004907696,0.022206556,0.025458531
13.86952004,-0.00653398,0.00163881,0.031337568,0.03205342
13.87951504,-0.001592366,-0.0018712,0.022805895,0.02293787
13.88951104,-0.006079167,0.003896703,0.020861696,0.022076026
13.89950704,-0.006023893,0.002931538,0.030741736,0.031463241
13.90950204,-0.009581766,0.000687934,0.025203254,0.026971976
13.91949804,-0.001603192,0.00493971,0.022957338,0.023537424
13.92949304,0.0018244,0.000497616,0.026549283,0.026616545
13.93948904,-0.009699969,0.007594546,0.036580181,0.038598914
13.94948504,-0.005166465,-0.000937729,0.026850414,0.027359029
13.95948004,0.000250293,-0.027475564,0.025054734,0.037184795
13.96947604,-0.021036393,0.023050729,0.036579596,0.048082562
13.97947104,-0.007246386,0.009047168,0.042117494,0.04368346
13.98946704,0.008031975,0.001236896,0.015472902,0.017477221
13.99946204,-0.014101264,-0.024183216,0.002000917,0.028065588
14.00945804,-0.003333077,0.012533571,0.037477144,0.039657737
14.01945404,0.000269657,0.006207989,0.027146868,0.027848955
14.02944904,-0.017297179,-0.014471968,0.021907763,0.031441697
14.03944504,-0.009054509,0.000378223,0.023853132,0.025516643
14.04944004,-0.00100822,-0.003070291,0.025050641,0.025258223
14.05943604,0.009898532,-0.013332309,0.006787448,0.017938809
14.06943204,-0.014181654,0.014398522,0.030288577,0.036412012
14.07942704,-0.007939206,-0.000159976,0.026696048,0.027852029
14.08942304,0.000814364,-0.007060997,0.009331571,0.011730264
14.09941804,-0.006801717,0.004455514,0.020408537,0.02196869
14.10941404,-0.01244441,0.001978935,0.029391614,0.031978845
14.11941004,0.001854266,-0.001577561,0.024601575,0.024721741
14.12940504,-0.007575936,-0.00045939,0.016966281,0.018586569
14.13940104,-0.010717364,0.011882017,0.036574334,0.0399215
14.14939604,0.00099116,0.006586313,0.034330173,0.034970311
14.15939204,-0.003067454,-0.017971107,0.019512159,0.026703825
14.16938804,-0.007444901,0.00864678,0.032385389,0.034336668
14.17938304,-0.012705598,0.00933539,0.034333096,0.037780196
14.18937904,-0.010170476,-0.021977719,0.01517294,0.028577558
14.19937404,-0.003818106,0.005253294,0.027597688,0.028351498
14.20937004,-0.000233158,0.001366549,0.020714346,0.020760683
14.21936604,-0.006723638,-0.014222027,0.018618704,0.024374772
14.22936104,-0.004938234,0.015027929,0.019366563,0.025005771
14.23935704,-0.010406582,0.002304634,0.024005159,0.026265109
14.24935204,-0.006878669,-0.00847193,0.010980486,0.015480981
14.25934804,-0.001743293,0.009378806,0.02400282,0.025828985
14.26934304,-0.008462579,0.003632583,0.025200915,0.026830897
14.27933904,-0.001878231,-0.000834526,0.020710253,0.020811986
14.28933504,-0.005241373,0.002337735,0.031187879,0.031711525
14.29933004,-0.00797732,-0.003220829,0.024304537,0.025782201
14.30932604,-0.002820834,-0.002419697,0.017269751,0.017665117
14.31932104,-0.007621983,-0.003643583,0.029095745,0.030297404
14.32931704,-0.006537087,-0.002718727,0.023409328,0.024456525
14.33931304,-0.007978585,-0.004933469,0.019816214,0.021924399
14.34930804,-0.01017916,0.002694187,0.028647848,0.030521683
14.35930404,-0.006621083,0.009892466,0.034036642,0.036058184
14.36929904,-0.006983665,0.001117567,0.034634812,0.035349551
14.37929504,-0.000619515,-5.62338E-05,0.036880143,0.036885389
14.38929104,-0.003568126,0.003977587,0.028645509,0.029139628
14.39928604,-0.006732432,0.004622498,0.021760998,0.023242938
14.40928204,-0.003970602,0.002921982,0.026400763,0.026857103
14.41927704,-0.001592855,0.004927449,0.026252244,0.026758125
14.42927304,0.000334568,-0.003511317,0.035682634,0.035856542
14.43926904,-0.010070966,-0.003758106,0.034484539,0.036121062
14.44926404,-0.005192972,-0.00933286,0.027000103,0.02903575
14.45926004,-0.005675746,1.0324E-05,0.02026528,0.021045089
14.46925504,-0.00405789,0.001401833,0.023260809,0.023653685
14.47925104,-0.003553113,-0.000883989,0.026703649,0.026953496
14.48924604,-0.002645577,-0.006410604,0.029248942,0.030059866
14.49924204,-0.010467338,-0.002104431,0.026553376,0.028619496
14.50923804,-0.004162057,0.000763674,0.029696254,0.029996224
14.51923304,-0.003343616,0.002222728,0.033137925,0.033380269
14.52922904,0.005339166,0.000153791,0.030290916,0.03075825
14.53922404,-0.001407443,0.004686653,0.017866167,0.018524188
14.54922004,-0.004794909,-0.000421566,0.026997764,0.027423496
14.55921679,-0.006556828,-0.001821773,0.018614026,0.019819002
14.56921179,-0.006533903,-0.000200861,0.024302198,0.02516603
14.57920779,-0.012833928,-0.003528585,0.021007292,0.024868995
14.58920279,-0.00422967,0.003705783,0.024751264,0.025382041
14.59919879,-0.000817276,0.003055097,0.026396086,0.026584862
14.60919479,-0.008533602,-0.000263408,0.021306669,0.02295356
14.61918979,-0.012837073,0.006559416,0.036725777,0.039453759
14.62918579,-0.007041306,0.001250226,0.023702858,0.024758201
14.63918079,-0.005708808,0.007151063,0.023105857,0.024851737
14.64917679,-0.012683486,0.004042801,0.022507102,0.026149277
14.65917179,-0.010881097,-0.006279581,0.031638114,0.034041177
14.66916779,-0.010383794,-0.00480717,0.027896481,0.030152043
14.67916379,-0.005988314,0.004071745,0.021161658,0.022366376
14.68915879,0.001620617,0.001821782,0.027149792,0.027259062
14.69915479,0.000337599,0.007583236,0.02370929,0.024894776
14.70914979,-0.007586411,-0.005648776,0.017572637,0.019956449
14.71914579,-0.00437247,0.002159459,0.024757696,0.025233416
14.72914179,-0.006490099,0.001193846,0.025655243,0.026490341
14.73913679,-0.001151374,-0.000327892,0.035982011,0.036001921
14.74913279,-0.002266143,-0.002627593,0.031492519,0.031683093
14.75912779,-0.009189347,0.007719458,0.032988821,0.03510408
14.76912379,-0.012304332,0.001530966,0.021613063,0.024917162
14.77911879,-0.008296977,0.003660293,0.027001272,0.028483439
14.78911479,-0.01223777,-0.000907926,0.030594971,0.032964217
14.79911079,-0.009536539,0.003900952,0.028349056,0.030163421
14.80910579,0.002807598,-0.000357694,0.036133454,0.036244131
14.81910179,-0.006396438,0.010489037,0.027001857,0.029665377
14.82909679,-0.00118145,0.003815811,0.024907385,0.025225662
14.83909279,-0.004648123,-0.00027238,0.027448584,0.02784069
14.84908879,-0.00136572,0.00093909,0.033286445,0.033327683
14.85908379,-0.006276561,0.009178484,0.020562319,0.023376243
14.86907979,-0.002487995,0.00650542,0.02490563,0.025861188
14.87907479,-0.007063731,0.002759374,0.031790727,0.032682729
14.88907079,-0.009995336,-0.005053703,0.03777886,0.039404174
14.89906579,0.001089693,-0.00015369,0.02894898,0.028969889
14.90906179,-0.006090179,0.008271901,0.021016647,0.023392607
14.91905779,-0.006847793,-0.000342391,0.031644546,0.032378802
14.92905279,-0.001110964,-0.008673714,0.018770732,0.020707678
14.93904879,-0.001881716,-0.000625798,0.023858979,0.023941248
14.94904379,-0.007784864,0.004103594,0.02011793,0.021958477
14.95903979,-0.00802666,0.005239407,0.025505555,0.027247238
14.96903579,-0.009424528,0.008015966,0.025506724,0.028349082
14.97903079,-0.008581869,-0.001067939,0.02655396,0.027926722
14.98902679,-0.009988045,-0.002759502,0.023710459,0.025875892
14.99902179,-0.005619668,-0.002971235,0.016076919,0.017288038
15.00901779,-0.004832539,0.00202955,0.029697424,0.030156417
15.01901279,-0.01145581,0.002017792,0.023111705,0.025873886
15.02900879,-0.008942179,0.005908602,0.015178202,0.018580957
15.03900479,-0.007858952,0.003580314,0.031344,0.032511968
15.04899979,-0.000519895,-0.003978391,0.027902913,0.0281899
15.05899579,-0.003882853,-0.003362834,0.017275014,0.018022522
15.06899079,-0.012859982,-0.000890147,0.016375712,0.020840716
15.07898679,-0.004206802,0.001379651,0.026704234,0.027068741
15.08898279,-0.010069929,0.002166805,0.025804932,0.027784762
15.09897779,-0.012436315,-0.001803135,0.021014308,0.024484983
15.10897379,-0.00967764,-0.005710683,0.027601197,0.029800917
15.11896879,-0.000630444,-0.003824335,0.029847112,0.030097726
15.12896479,-0.001368993,0.004782419,0.023112289,0.023641565
15.13895979,-0.002792726,-0.003284893,0.024760619,0.025133207
15.14895579,0.003193461,-0.005409515,0.029251866,0.029918768
15.15895179,-0.001790322,0.010909571,0.027306497,0.029459612
15.16894679,-0.007104326,0.003374538,0.027756733,0.028849526
15.17894279,-0.011402984,-0.002735629,0.030151168,0.032351269
15.18893779,-0.00379522,0.001229679,0.027305328,0.02759523
15.19893379,0.0019159,-0.002643755,0.020419647,0.020679025
15.20892879,-0.006377238,0.000972958,0.028803969,0.029517528
15.21892479,-0.000679773,-0.004288905,0.016828871,0.017380095
15.22892079,-0.002281757,-0.005356671,0.020122608,0.020948023
15.23891579,-0.010905192,-0.000655619,0.028205799,0.030247647
15.24891179,-0.014844795,0.004148499,0.0374865,0.040531662
15.25890679,-0.008130631,0.005592588,0.029554167,0.031158193
15.26890279,-0.009059621,0.002287275,0.017878447,0.020172933
15.27889879,-0.007312003,-0.007661196,0.023717476,0.025974564
15.28889379,-0.00109136,-0.005148784,0.032547941,0.032970737
15.29888979,-0.00255522,0.009553199,0.02281759,0.024868357
15.30888479,-0.006679626,0.01372019,0.018477201,0.023963889
15.31888079,-0.009165846,0.00021557,0.031649809,0.032951018
15.32887579,-0.015473818,-0.003261312,0.033146696,0.036725722
15.33887179,0.002407865,0.002827092,0.032249148,0.032462253
15.34886779,-0.009148624,0.003574796,0.021920627,0.024020624
15.35886279,-0.006014087,-0.003041813,0.022517627,0.023504583
15.36885879,-0.008086204,-0.006960178,0.031646885,0.033396948
15.37885379,-0.002438474,-0.002194643,0.035389103,0.035540839
15.38884979,0.00024527,0.000872523,0.033589915,0.033602141
15.39884479,-0.001943843,0.006446957,0.028348471,0.02913722
15.40884079,-0.002868957,0.003380586,0.017122402,0.017687168
15.41883679,-0.006200104,-0.000709413,0.019218628,0.020206441
15.42883179,-0.00342825,0.000710291,0.01428007,0.014702986
15.43882779,-0.00251238,0.006283546,0.017423533,0.018691562
15.44882279,-0.011496674,0.003834942,0.016825363,0.020735794
15.45881879,-0.004698955,0.007445698,0.026106648,0.027551328
15.46881379,-0.005109932,0.007122777,0.025657582,0.027113777
15.47880979,0.00166885,0.002139295,0.021016062,0.021190482
15.48880579,-0.005064538,0.000634596,0.023409328,0.023959317
15.49880079,-0.010209513,0.004121922,0.028048509,0.030132096
15.50879679,-0.003467835,-0.006316263,0.025353527,0.026357587
15.51879179,-0.006483141,-0.002566544,0.027297726,0.028174175
15.52878779,-0.008064069,0.006417091,0.031935738,0.033557408
15.53878379,-0.009144757,-0.001044148,0.031787803,0.033093523
15.54877879,-0.003192246,0.000266085,0.02340582,0.023624005
15.55877408,-0.011445906,0.003988194,0.029992708,0.032349297
15.56876908,-0.012615025,0.004789162,0.021459866,0.025349572
15.57876508,-0.005021248,-0.002797189,0.021908348,0.022649788
15.58876008,-0.014827847,-0.007918254,0.024453641,0.029673967
15.59875608,-0.006029866,0.000973077,0.029692161,0.030313868
15.60875208,0.00092037,-0.000169323,0.021159319,0.021180003
15.61874708,-0.001647046,-0.003792751,0.018015856,0.018484285
15.62874308,-0.009773904,0.002333094,0.020260602,0.022615582
15.63873808,-0.008323959,-0.000530068,0.018761961,0.020532424
15.64873408,0.002273151,0.00411474,0.022802972,0.023282479
15.65872908,-0.006916713,0.002214176,0.034328418,0.035088229
15.66872508,-0.010259694,-0.0045405,0.026396086,0.028681541
15.67872108,-0.008666942,0.002339334,0.024449548,0.026045513
15.68871608,-0.000682443,-0.001810389,0.035525928,0.035578572
15.69871208,-0.001460913,-0.00558939,0.028644925,0.029221692
15.70870708,-0.003526513,-0.004876614,0.019364809,0.020278399
15.71870308,-0.003806738,-0.00046426,0.02325847,0.02357251
15.72869808,-0.004870626,-0.00163923,0.026850999,0.027338365
15.73869408,-0.003030269,0.00671973,0.031641038,0.032488345
15.74869008,-0.005276322,-0.001206719,0.025803178,0.026364744
15.75868508,-0.008919909,-0.000991569,0.023257885,0.024929444
15.76868108,-0.008016487,-0.002415713,0.030142397,0.031283603
15.77867608,-0.006662039,-0.003089842,0.034032549,0.034815863
15.78867208,-0.002803726,0.003612291,0.027744454,0.028118752
15.79866708,-0.013510821,-0.003834102,0.021755735,0.02589507
15.80866308,-0.004333298,-0.005118324,0.033732002,0.034392189
15.81865908,-0.006162438,0.003882926,0.031338737,0.032174045
15.82865408,-0.009871886,0.002733802,0.030589709,0.032259233
15.83865008,-0.001919362,0.001963943,0.023702273,0.023860821
15.84864508,-0.008776863,0.000161493,0.022654452,0.024295753
15.85864108,-0.002882157,0.008088901,0.034330757,0.035388389
15.86863608,-0.008327541,-0.000371591,0.026548113,0.027826037
15.87863208,-0.006493127,-0.002782032,0.035978503,0.03666542
15.88862808,-0.007954943,0.002511132,0.017865583,0.019717149
15.89862308,-0.003364796,-0.010690099,0.026698387,0.028955205
15.90861908,-0.007437896,0.000190784,0.026249905,0.027283992
15.91861408,-0.011483018,0.000597805,0.02684866,0.029207321
15.92861008,-0.004623878,-0.003639563,0.031339906,0.031887559
15.93860508,-0.009742151,0.006899897,0.030891425,0.033117944
15.94860108,-0.008711575,0.003470916,0.035831153,0.037037958
15.95859708,-0.010411781,0.004036452,0.033286445,0.035109621
15.96859208,-0.008171488,2.17535E-05,0.023406404,0.024791802
15.97858808,-0.007465469,-0.007701742,0.025051811,0.027251482
15.98858308,-0.011624105,-0.005624208,0.030141812,0.032791468
15.99857908,-0.007409167,0.000788013,0.023703443,0.02484693
16.00857408,-0.000358041,0.003675624,0.032085426,0.03229726
16.01857008,-0.006534254,-0.001625964,0.025796746,0.026661064
16.02856608,-0.001290133,-0.002601381,0.021604292,0.021798557
16.03856108,-0.002799971,0.003754296,0.023400557,0.023864632
16.04855708,-0.006111393,-0.003311397,0.015916121,0.017367711
16.05855208,-0.000596407,0.00451374,0.01891165,0.019451993
16.06854808,-0.004879684,0.00455541,0.021156396,0.022184593
16.07854308,-0.003174403,-0.006480835,0.022803556,0.023918199
16.08853908,-0.005862928,0.000173315,0.016963942,0.017949353
16.09853408,-0.003958419,0.007257948,0.030884993,0.031972327
16.10853008,-0.010276463,0.005068303,0.028341454,0.030570107
16.11852608,-0.004240319,-0.002540104,0.029088728,0.029505704
16.12852108,-0.011545378,0.005389132,0.032529815,0.034936046
16.13851708,-0.006540682,0.010366419,0.012921762,0.017810533
16.14851208,-0.008340852,0.000520466,0.011872771,0.01451907
16.15850808,-0.008570812,-0.000105679,0.025492691,0.026895116
16.16850308,0.002091152,-0.001832353,0.021898992,0.022074788
16.17849908,-0.010148019,0.005523417,0.029982183,0.03213132
16.18849508,-0.000659031,0.007572656,0.026839889,0.027895503
16.19849008,-0.004000615,0.001308917,0.020103312,0.020539263
16.20848608,0.001642289,0.006277927,0.027137513,0.027902582
16.21848108,-0.00110543,0.006270627,0.032526891,0.033144251
16.22847708,-0.007212198,0.007788318,0.028487635,0.030400971
16.23847208,-0.006213028,0.005108155,0.02489686,0.026163879
16.24846808,-0.006396171,0.001916763,0.026694294,0.027516728
16.25846408,0.002490343,0.004368775,0.024149001,0.024667027
16.26845908,-0.002938338,-0.003782061,0.01247328,0.013361158
16.27845508,-0.003997342,0.00521123,0.020705575,0.021722258
16.28845008,0.001263583,0.003445819,0.026393747,0.026647705
16.29844608,-0.007887542,0.002965781,0.020254755,0.021937736
16.30844108,-0.00387929,-0.001944811,0.018609933,0.019109181
16.31843708,-0.003721077,-0.005601633,0.024746586,0.025644068
16.32843208,-0.008779973,0.004051481,0.029685144,0.03122035
16.33842808,-0.005255258,0.004992408,0.024742493,0.025782413
16.34842408,-0.007309435,0.00523017,0.019801596,0.021745936
16.35841908,-0.005237785,-0.001508253,0.022046927,0.022710707
16.36841508,-0.008379362,-0.004873736,0.029382843,0.030940564
16.37841008,-0.005235419,0.000751787,0.025938833,0.026472587
16.38840608,-0.007147593,-0.000504021,0.027583655,0.028499125
16.39840108,-0.014174692,-0.002834822,0.023391786,0.027497887
16.40839708,-0.006327037,0.000674065,0.033271827,0.033874772
16.41839308,-0.004734463,0.001381259,0.038810894,0.039122992
16.42838808,-0.00095216,0.002249671,0.022642758,0.022774154
16.43838408,-0.002834579,0.005453013,0.026683184,0.027381791
16.44837908,-0.012561208,-0.002779748,0.029078203,0.031797057
16.45837508,-0.008735037,-0.002710879,0.022939796,0.024695829
16.46837008,-0.000717887,-0.006352104,0.022339287,0.023235928
16.47836608,-0.005302625,0.000361349,0.030574506,0.031033028
16.48836208,-0.006746406,-0.009707684,0.037909253,0.039709755
16.49835708,-0.000757667,0.001057469,0.030575091,0.030602753
16.50835308,-0.000837173,0.001407224,0.025186881,0.02524005
16.51834808,-0.004229773,0.001098208,0.028929684,0.029257882
16.52834408,-0.006534204,0.004842454,0.03297128,0.033959542
16.53833908,-0.00575641,0.00458323,0.0224919,0.023664907
16.54833508,-0.004937053,0.000703246,0.023092409,0.023624741
16.55832946,-0.008551857,-0.007309888,0.030877392,0.03286308
16.56832546,-0.007063628,-0.00409845,0.024589881,0.025910507
16.57832146,-0.004379866,-0.003233117,0.030128948,0.030616822
16.58831646,-0.003690041,0.000718157,0.023841437,0.024135995
16.59831246,0.001399894,0.003309086,0.030426571,0.030637983
16.60830746,0.000258125,-0.004033546,0.024439023,0.02477099
16.61830346,0.004004299,-0.007083052,0.030427741,0.031496848
16.62829846,-0.002110548,-0.003572064,0.020996767,0.021402763
16.63829446,-0.006135899,-0.004682322,0.023989372,0.025200463
16.64829046,-0.002820249,-0.004424789,0.026981392,0.027486871
16.65828546,-0.004676418,6.79282E-05,0.022188429,0.022675976
16.66828146,-0.012094559,-0.004372758,0.032965432,0.035385295
16.67827646,-0.006041256,0.006822696,0.026529402,0.028050938
16.68827246,-0.004000553,0.001618756,0.025480996,0.025843877
16.69826746,-0.002324472,0.003648462,0.019642552,0.020113286
16.70826346,0.00175496,0.003909933,0.02622944,0.026577264
16.71825846,-0.007293538,-0.007507231,0.017548079,0.020432555
16.72825446,-0.010471269,0.003049149,0.024283487,0.026620152
16.73825046,-0.006650986,-0.001627764,0.017845702,0.019114244
16.74824546,-0.006797363,0.002415046,0.032515197,0.033305775
16.75824146,-0.008772708,0.002873386,0.03161648,0.032936584
16.76823646,-0.003081821,-0.003150224,0.02338477,0.023796407
16.77823246,0.001331062,-0.000384135,0.024583449,0.024622454
16.78822746,-0.006483139,0.001632899,0.028027459,0.028813814
16.79822346,-0.001207155,-0.005233194,0.028027459,0.028537379
16.80821846,-0.003198244,-0.005030396,0.023836175,0.024570244
16.81821446,-0.006366398,-0.003282261,0.022490146,0.023603197
16.82821046,-0.007015519,0.007901416,0.02203991,0.024441921
16.83820546,-0.010068152,0.008724594,0.032367847,0.035002339
16.84820146,-0.005496348,0.001592042,0.02907411,0.02963188
16.85819646,-0.006507871,0.000450957,0.032963678,0.033602974
16.86819246,-0.001413944,0.002254467,0.030868621,0.030983118
16.87818746,0.002853142,0.000118479,0.029372318,0.029510804
16.88818346,-0.001491785,-0.004018179,0.02967345,0.029981408
16.89817946,-0.003112852,0.00448158,0.029522592,0.030022622
16.90817446,-0.005990525,-0.002316923,0.031469715,0.032118491
16.91817046,-0.008166173,-0.004489456,0.026980222,0.028544246
16.92816546,-0.006668638,-0.001854454,0.016799635,0.018169685
16.93816146,0.003017303,-0.011708392,0.018296522,0.021930647
16.94815646,0.003606887,0.00522943,0.025034269,0.025827722
16.95815246,-0.001780482,-7.07148E-06,0.022788938,0.022858387
16.96814746,-0.007760817,0.001311074,0.02787894,0.028968681
16.97814346,-0.00074457,0.00720704,0.019796918,0.021081124
16.98813846,-0.008479376,-0.000194721,0.038358904,0.039285408
16.99813446,-0.006426538,-0.006349994,0.024587542,0.026194847
17.00813046,-0.010317325,0.002065556,0.026233533,0.028265031
17.01812546,-0.000718166,-0.002444063,0.026830534,0.026951192
17.02812146,0.001445818,0.00045558,0.028027459,0.028068423
17.03811646,-0.010355597,0.001428475,0.019795749,0.022386393
17.04811246,-0.005060701,0.006002989,0.019347852,0.020880277
17.05810746,-0.012811939,0.004815246,0.032821006,0.035560523
17.06810346,-0.011940576,0.002548765,0.023540305,0.026518287
17.07809946,-0.01013309,0.008599527,0.019496956,0.023595819
17.08809446,-0.014929125,-0.001380546,0.010966453,0.018575461
17.09809046,-0.007864925,0.007296192,0.029824893,0.031695673
17.10808546,0.000183561,0.003081464,0.022490146,0.022701008
17.11808146,-0.00918585,0.002152808,0.031171507,0.03256804
17.12807646,-0.006961403,0.003817355,0.021591429,0.02300485
17.13807246,-0.001580939,0.006869007,0.029376411,0.0302102
17.14806746,-0.009184793,-0.005329701,0.020396842,0.022995593
17.15806346,-0.013375449,-0.009963701,0.019797503,0.025886658
17.16805846,-0.011177971,0.006009366,0.028929099,0.031590383
17.17805446,-0.004191426,0.007546937,0.024140815,0.025637926
17.18805046,-0.005380306,-0.00238221,0.023392371,0.024121062
17.19804546,-0.002375463,-0.000497333,0.028629722,0.028732406
17.20804146,-0.003726191,-0.002416883,0.026383222,0.026754443
17.21803646,-0.007023273,0.002368533,0.040755093,0.041423592
17.22803246,-0.004872489,-0.001582101,0.031325873,0.031741999
17.23802746,-0.003702594,0.005577485,0.028930854,0.029695317
17.24802346,-0.004735575,-0.006865992,0.032822176,0.033865362
17.25801846,-0.005839265,-0.0020047,0.03102708,0.031635353
17.26801446,-0.005119178,0.002032912,0.01755568,0.018399474
17.27801046,-0.004175933,0.001620775,0.023842022,0.02425917
17.28800546,-0.004747857,0.002184766,0.027135174,0.02763391
17.29800146,-0.007127112,0.002246811,0.022494239,0.023703052
17.30799646,-0.008995213,0.000436513,0.036265601,0.037367074
17.31799246,-0.005062172,-0.000387652,0.02578856,0.026283563
17.32798746,-0.005642581,-0.001434486,0.020399766,0.021214309
17.33798346,0.00433714,0.01201009,0.02339354,0.026651656
17.34797846,-0.002893502,0.00372168,0.033872336,0.034198807
17.35797446,-0.001642702,-0.005943549,0.027584825,0.028265647
17.36797046,0.000174827,0.002446649,0.02713342,0.027244066
17.37796546,-0.006420672,3.23241E-05,0.022041664,0.02295781
17.38796146,5.17113E-05,0.003617654,0.020543023,0.020859192
17.39795646,-0.006043794,0.000367543,0.016649362,0.017716201
17.40795246,-0.004985252,0.003642011,0.03431497,0.034865945
17.41794746,-0.002139953,0.000514811,0.030273374,0.03035328
17.42794346,-0.002074757,-0.001470648,0.017249286,0.017435748
17.43793846,-0.000112182,-0.000345031,0.023387108,0.023389922
17.44793446,-0.000503164,-0.001408311,0.026380883,0.026423238
17.45792946,0.00050411,0.004942487,0.027876601,0.028315847
17.46792546,-0.006907378,0.002672854,0.024134383,0.025245285
17.47792146,0.001922562,0.004170088,0.026829364,0.027219491
17.48791646,-0.003709878,-0.009268248,0.031020064,0.032586929
17.49791246,0.009233765,-0.010684096,0.033116875,0.036001941
17.50790746,0.003837857,-0.000824549,0.02668143,0.026968643
17.51790346,-0.009129756,0.011205312,0.032518705,0.0355862
17.52789846,8.60546E-05,0.006130367,0.022189599,0.023021014
17.53789446,-0.008281265,0.000703913,0.021890221,0.023414881
17.54788946,-0.004103142,-0.005818784,0.031172091,0.031974885
17.55788546,0.000544951,-0.000778703,0.029224969,0.02924042
17.56788142,-0.002040703,0.008073689,0.018147418,0.019966916
17.57787642,-0.008603822,-0.004279541,0.025782713,0.027515241
17.58787242,-0.000652595,-0.001087893,0.023985863,0.024019389
17.59786742,-0.00645224,-0.000327225,0.031021233,0.031686833
17.60786342,-0.004102553,0.002284736,0.025930647,0.026352408
17.61785842,-0.003265364,0.003569661,0.022189599,0.022710865
17.62785442,0.001700809,-0.000291575,0.026679676,0.026735423
17.63784942,-0.000464079,-0.008288766,0.020688618,0.022292105
17.64784542,-0.001724111,0.004878935,0.024131459,0.02468003
17.65784042,-0.0001534,0.001583956,0.030118423,0.030160435
17.66783642,-0.005566983,0.005370713,0.028920329,0.029936955
17.67783242,-0.010264381,0.000803855,0.029517329,0.031261421
17.68782742,-0.005277293,-0.010130877,0.025175772,0.027646048
17.69782342,-0.00990813,-0.001822769,0.026073319,0.02795195
17.70781842,-0.000632191,0.010739499,0.023829743,0.026145614
17.71781442,-0.002987521,0.003329633,0.02697496,0.027343376
17.72780942,-0.003707959,0.0008531,0.028922083,0.029171281
17.73780542,-0.000415568,0.003237092,0.023982355,0.024203405
17.74780042,-0.009128922,-0.000848495,0.025627177,0.027217813
17.75779642,-0.009431022,0.002593231,0.031764999,0.03323679
17.76779242,-0.001603948,0.004178612,0.023832666,0.024249318
17.77778742,-0.000879494,-0.002729681,0.01874208,0.018960228
17.78778342,-0.008029981,-0.008721013,0.024879318,0.027559338
17.79777842,-0.000995827,-0.002931337,0.033861226,0.034002456
17.80777442,0.004150673,-0.002909876,0.026077412,0.026565521
17.81776942,-0.000309503,-5.41233E-05,0.028322158,0.028323901
17.82776542,-0.003927017,-0.000484131,0.025478073,0.025783484
17.83776042,-0.004768062,-0.010367607,0.029070602,0.031230139
17.84775642,-0.000477176,-0.001586066,0.034908462,0.034947733
17.85775142,-0.00758377,0.002505751,0.030866282,0.031882906
17.86774742,-0.003137372,-0.0015453,0.024278809,0.024529403
17.87774342,-0.004619926,-0.000659456,0.03056632,0.030920519
17.88773842,-0.002653229,-0.003064599,0.033709783,0.033952627
17.89773442,-0.004657312,-0.001346303,0.02637562,0.026817465
17.90772942,-0.00141739,-0.007374417,0.033860641,0.034683339
17.91772542,-0.003267872,-0.001908915,0.032812235,0.03302977
17.92772042,-0.006730531,0.003754324,0.019939005,0.021376598
17.93771642,-0.006632725,0.001951408,0.036704142,0.037349633
17.94771142,-0.005383216,-0.004629679,0.037154962,0.037827294
17.95770742,-0.002744633,0.002927902,0.028471847,0.02875329
17.96770242,-0.002953582,-0.006732585,0.027274922,0.028248411
17.97769842,-0.000129022,0.002944311,0.026527648,0.026690855
17.98769442,-0.005914116,0.001713974,0.013355041,0.014706175
17.99768942,-0.002312469,-0.001904274,0.019941929,0.020165671
18.00768542,-0.004304359,-0.002995127,0.031767923,0.032197814
18.01768042,-0.002815777,-0.000291401,0.03371563,0.033834261
18.02767642,0.003676172,-0.003153111,0.019345513,0.019942548
18.03767142,-0.001602381,0.006701384,0.022636911,0.023662331
18.04766742,0.001651747,0.005160661,0.023535628,0.024151324
18.05766242,0.002248099,0.001867162,0.025331308,0.025499321
18.06765842,-0.004205222,0.006421357,0.028625629,0.029636875
18.07765342,-0.005071331,0.002773864,0.032368432,0.032880512
18.08764942,-0.007553294,-0.007038686,0.017847456,0.020618609
18.09764442,-0.007513521,-0.005761828,0.022338118,0.02426197
18.10764042,-0.010986062,0.00676712,0.030866867,0.033455208
18.11763642,-0.005629811,0.003824792,0.027123479,0.027964387
18.12763142,-0.002667406,0.010225181,0.031764414,0.033476072
18.13762742,-0.008491196,0.001863974,0.028173639,0.029484382
18.14762242,-0.00721619,-0.007071714,0.021589674,0.023836874
18.15761842,0.001877285,0.003327842,0.024285241,0.024583971
18.16761342,-0.004776643,-0.002612463,0.023985279,0.024595424
18.17760942,-0.000715434,-0.004675826,0.029973997,0.030344945
18.18760442,0.000993689,0.005373217,0.020992089,0.021691627
18.19760042,-0.002593471,0.006352589,0.031918196,0.0326474
18.20759542,-0.000366157,-0.003809306,0.022938627,0.023255655
18.21759142,-0.001050548,-0.012041354,0.02488458,0.027664783
18.22758742,-6.52193E-05,0.000395847,0.025333647,0.025336823
18.23758242,-0.008597591,0.005911974,0.032668979,0.034294783
18.24757842,-0.004084173,-0.003252294,0.025633609,0.026159889
18.25757342,-0.0046119,-0.00304618,0.021893145,0.022580049
18.26756942,-0.006577547,-0.004544054,0.030275713,0.031313437
18.27756442,-0.003377895,-0.010403558,0.022192522,0.024741711
18.28756042,-0.005950816,-0.006423705,0.018750851,0.0206947
18.29755542,-0.001983905,0.002519684,0.032073147,0.03223308
18.30755142,-0.003985581,-0.008630043,0.026386145,0.028046233
18.31754642,-0.004262625,-0.002330938,0.013663189,0.01450124
18.32754242,-0.002929928,0.003373496,0.027733344,0.028090983
18.33753742,-0.001874939,0.003641609,0.023690579,0.024042052
18.34753342,-0.003235168,-0.008706257,0.029230231,0.030670371
18.35752942,0.003499764,-0.002453346,0.019199917,0.019669877
18.36752442,-0.006927356,-0.002347776,0.03476579,0.035526898
18.37752042,-0.011892065,0.003152682,0.029225553,0.031709519
18.38751542,-0.005161207,-0.003427437,0.040601311,0.041071302
18.39751142,-0.006758148,0.006807064,0.035214272,0.036497309
18.40750642,-0.008125309,-0.006535004,0.025634778,0.027674334
18.41750242,-0.007661367,-0.004724194,0.032819252,0.034031131
18.42749742,-0.00793519,0.008095991,0.029676958,0.031768446
18.43749342,0.005556123,0.00384745,0.03117443,0.031898565
18.44748842,0.004923785,-0.004151413,0.02533774,0.02614343
18.45748442,-0.010807756,-0.000511622,0.025486844,0.027688419
18.46748042,-0.003096028,0.005499507,0.029229062,0.029902642
18.47747542,-0.000459281,0.003289662,0.026985485,0.027189138
18.48747142,-0.001633285,0.000301579,0.029677543,0.029723982
18.49746642,-0.001049061,0.005920945,0.031772016,0.032336034
18.50746242,-0.005293439,-0.003066335,0.023088316,0.023885
18.51745742,-0.004214029,0.000191441,0.026683769,0.027015148
18.52745342,-0.008554762,-0.005188189,0.026383806,0.028217131
18.53744842,-0.01172914,-0.006891693,0.03027279,0.033189003
18.54744442,-0.00145621,-0.01002179,0.028478279,0.030225307
18.55743942,-0.003429796,-0.007695575,0.031622327,0.032725479
18.56743542,-0.009407046,0.006410951,0.036563224,0.038294414
18.57743042,-0.006429208,0.005106273,0.03012544,0.031224203
18.58742642,-0.001839312,-0.003379042,0.030274544,0.030518011
18.59742142,-7.74756E-05,-0.001395137,0.025334816,0.025373319
18.60741742,0.001135059,-0.002902805,0.032070808,0.032221908
18.61741342,0.005671276,0.000444736,0.018447965,0.019305144
18.62740842,-0.00791337,0.00148247,0.029523177,0.03060126
18.63740442,0.001546177,-0.002863948,0.018594146,0.018876841
18.64739942,-0.005029782,-0.004457077,0.017545155,0.018788207
18.65739542,-0.000480356,0.009849196,0.025030761,0.026903093
18.66739042,-0.00723698,-0.000950967,0.023684147,0.024783402
18.67738642,-0.007434833,0.000892285,0.027577223,0.028575797
18.68738142,0.000444356,-0.005975663,0.02443376,0.025157795
18.69737742,0.002098429,-0.002159541,0.024135552,0.024322662
18.70737242,-0.001228671,0.000978504,0.0208424,0.020901501
18.71736842,-0.002054981,0.007273735,0.01739956,0.018970368
18.72736342,4.75132E-05,-0.002197804,0.024886335,0.024983239
18.73735942,0.002588476,0.00356216,0.031620573,0.031925692
18.74735542,0.000417521,0.000446481,0.022341042,0.022349403
18.75735042,-0.007623684,0.001120409,0.020995013,0.022364401
18.76734642,-0.001687826,-0.006005511,0.023690579,0.024498132
18.77734142,-0.004292441,-0.000841232,0.03237194,0.032666117
18.78733742,-0.0016272,-0.007893787,0.029826647,0.030896416
18.79733242,0.004421244,0.001805364,0.026232948,0.026664102
18.80732842,-0.003416852,0.001310672,0.017998899,0.018367175
18.81732342,-0.000237979,-0.003858843,0.016799635,0.017238766
18.82731942,0.002424178,-0.003135332,0.024434345,0.024753669
18.83731442,0.002478722,-0.004043176,0.028925591,0.029311792
18.84731042,-0.000725265,-0.001985294,0.023687071,0.023781184
18.85730542,0.000506465,-0.001948749,0.029975751,0.030043298
18.86730142,-0.003697044,0.002018075,0.028926761,0.029231802
18.87729642,-0.003726239,-0.004572815,0.025184543,0.02586613
18.88729242,-0.002538114,0.005543636,0.016500843,0.01759124
18.89728842,-0.005055224,0.001299937,0.03146796,0.031897926
18.90728342,-0.004050846,-0.003719469,0.032364923,0.03282883
18.91727942,-0.005019396,-0.004853235,0.025927724,0.026851352
18.92727442,-0.000682365,0.008006885,0.033562433,0.034511052
18.93727042,-0.002467265,-0.004064034,0.024430836,0.024889145
18.94726542,0.001285033,0.000831849,0.020986242,0.021041997
18.95726142,-0.007697786,0.001007128,0.028021612,0.029077155
18.96725642,-0.006565313,-0.000138122,0.024577602,0.025439751
18.97725242,-0.009781519,-0.000469732,0.028617443,0.0302466
18.98724742,-0.000616589,0.006056948,0.022780167,0.023579712
18.99724342,-0.002756668,-0.003861748,0.0236783,0.024149
19.00723842,-0.006111021,-0.002188375,0.037599351,0.038155534
19.01723442,0.001123803,5.25519E-05,0.024576432,0.024602169
19.02722942,-0.002644207,0.007657048,0.02726966,0.028447435
19.03722542,-0.009780195,-0.005770306,0.036999426,0.038702793
19.04722142,-0.008296169,-0.006749359,0.030411953,0.032237667
19.05721642,-0.00688072,-0.001912222,0.027567868,0.028477855
19.06721242,-0.004157064,0.002720746,0.02607098,0.026540152
19.07720742,-0.00387466,-0.006145241,0.029214444,0.030104164
19.08720342,-0.00289902,0.000337832,0.021133007,0.021333598
19.09719842,-0.005951787,-0.001289192,0.018438025,0.019417687
19.10719442,-0.004214961,0.010775797,0.029664094,0.031840889
19.11718942,-0.00640137,-0.001521939,0.028763623,0.029506607
19.12718542,-0.005056821,0.0037861,0.021579149,0.022484788
19.13718042,-0.003902199,0.005399109,0.026220084,0.027053103
19.14717642,0.001157043,0.002641717,0.019633781,0.019844464
19.15717142,-0.004165559,-0.007917961,0.032056775,0.033281869
19.16716742,-0.002013749,-0.002057425,0.027566113,0.027716039
19.17716242,0.001388652,-0.003430086,0.028314557,0.02855535
19.18715842,-0.003648576,0.01069929,0.022627555,0.025294133
19.19715342,0.005092498,0.000795002,0.023974754,0.024522528
19.20714942,-0.006119216,-0.005036609,0.030710746,0.031716907
19.21714542,-0.002701174,0.002987854,0.023374829,0.023719322
19.22714042,-0.00492653,0.00416012,0.02502199,0.025839452
19.23713642,-0.001674496,-0.003040552,0.028163114,0.028376221
19.24713142,0.001459725,0.001481182,0.020526066,0.020631143
19.25712742,-0.000993506,-0.007567878,0.022770227,0.024015476
19.26712242,0.001792859,-0.007871312,0.025913106,0.027141498
19.27711842,-0.005414558,0.00590567,0.029805012,0.030863136
19.28711342,-0.001933231,0.006987962,0.028606918,0.029511434
19.29710942,0.000222971,-0.001042312,0.017079717,0.017112944
19.30710442,-0.002789752,-0.00636569,0.035789638,0.036458235
19.31710042,-0.000255562,-0.001292783,0.028305202,0.028335861
19.32709542,0.004236178,0.000432685,0.023064927,0.023454707
19.33709142,-0.002967329,-0.002453464,0.021118389,0.021466506
19.34708642,0.005823859,0.001747011,0.034438931,0.03497155
19.35708242,0.003418104,-0.001629199,0.032194769,0.032416676
19.36707742,-0.008192093,-0.0034933,0.018421653,0.020461447
19.37707342,0.001729325,0.000772801,0.0235099,0.02358608
