"Time (s)","Linear Acceleration x (m/s^2)","Linear Acceleration y (m/s^2)","Linear Acceleration z (m/s^2)","Absolute acceleration (m/s^2)"
3.146312502E-2,-6.913940746E-1,2.154562435E0,4.208315365E0,4.778083639E0
4.146312503E-2,-4.536695288E-1,2.272264548E0,4.371155643E0,4.947322899E0
5.146312504E-2,-4.786874257E-1,2.419325237E0,4.014249786E0,4.711313787E0
6.146312505E-2,-5.587356618E-1,2.548973211E0,3.645377017E0,4.483104233E0
7.146312506E-2,-6.583821568E-1,2.759850705E0,3.110866077E0,4.210431180E0
8.146312507E-2,-9.803973860E-1,2.877097903E0,2.511788428E0,3.943089206E0
9.146312508E-2,-1.399554163E0,2.569800993E0,1.984860157E0,3.535858997E0
1.014631251E-1,-1.704909944E0,1.939064180E0,1.707604487E0,3.095577635E0
1.114631251E-1,-1.860704181E0,1.261555196E0,1.645125234E0,2.785709711E0
1.214631251E-1,-1.804267148E0,6.333730307E-1,1.638288084E0,2.518040743E0
1.314631251E-1,-1.534608472E0,2.176734200E-1,1.765184943E0,2.349102544E0
1.414631251E-1,-9.742063540E-1,-1.645283693E-1,1.879207987E0,2.123103922E0
1.514621251E-1,-6.039586855E-1,-6.089065263E-1,1.802423521E0,1.996062073E0
1.614621249E-1,-4.907220553E-1,-1.059425721E0,1.507303437E0,1.906608152E0
1.714621249E-1,-1.743355387E-1,-1.319079226E0,1.076057249E0,1.711216552E0
1.814621249E-1,2.801640755E-1,-1.490863405E0,6.379820985E-1,1.645656939E0
1.914621249E-1,4.417263716E-1,-1.565584974E0,6.058469707E-1,1.735865505E0
2.014621249E-1,1.912658775E-1,-1.466310070E0,6.483942354E-1,1.614640189E0
2.114621249E-1,-3.247031942E-2,-1.284198831E0,4.548578292E-1,1.362760655E0
2.214621250E-1,-1.214917658E-1,-1.221226657E0,2.537890399E-1,1.253221319E0
2.314621250E-1,-2.215634995E-1,-1.227328227E0,1.620146513E-1,1.257646098E0
2.414621250E-1,-3.540513928E-1,-1.274174072E0,6.617352426E-2,1.324103806E0
2.514621250E-1,-3.631878866E-1,-1.520909031E0,2.052080333E-2,1.563806517E0
2.614621250E-1,-2.438109125E-1,-1.734565414E0,-2.573353761E-1,1.770418716E0
2.714621250E-1,-1.498786821E-1,-1.817620142E0,-6.431913829E-1,1.933882560E0
2.814621250E-1,1.057695530E-2,-1.898762246E0,-1.237362049E0,2.266379222E0
2.914621250E-1,2.229891238E-1,-1.878268047E0,-1.916127892E0,2.692426620E0
3.014611250E-1,3.052356937E-1,-1.788036739E0,-2.619187161E0,3.185966980E0
3.114611250E-1,1.648150291E-1,-1.745671907E0,-3.300115889E0,3.737017432E0
3.214611250E-1,-2.117083830E-1,-1.827156658E0,-3.854479296E0,4.270870231E0
3.314611251E-1,-1.813358435E-1,-1.618094433E0,-4.222908846E0,4.525933208E0
3.414611251E-1,-2.652169843E-1,-1.150270695E0,-4.106030606E0,4.272347137E0
3.514611251E-1,-3.885863641E-1,-9.706477386E-1,-4.162676677E0,4.291973149E0
3.614611251E-1,-5.301152223E-1,-1.130730177E0,-4.206398647E0,4.387865365E0
3.714611251E-1,-2.346959073E-1,-9.983433679E-1,-4.220564697E0,4.343378640E0
3.814611251E-1,2.891429137E-1,-7.453562737E-1,-4.058705581E0,4.136695613E0
3.914611251E-1,7.990350290E-1,-7.463348052E-1,-3.929938198E0,4.079201743E0
4.014611251E-1,1.185222427E0,-9.546512184E-1,-4.347577330E0,4.606250079E0
4.114611251E-1,8.558410214E-1,-1.145756060E0,-4.664277148E0,4.878596327E0
4.214611249E-1,6.637218341E-2,3.746805158E-1,-5.317814595E0,5.331410959E0
4.314611249E-1,-9.392049211E-1,1.517042267E0,-4.922527614E0,5.235914555E0
4.414611249E-1,-1.429913199E0,1.295327544E0,-4.323594975E0,4.734553697E0
4.514601249E-1,-6.300861646E-1,5.157980955E-1,-4.162669660E0,4.241565154E0
4.614601249E-1,5.608481146E-1,2.803839308E-1,-3.633106050E0,3.686817778E0
4.714601249E-1,1.002388325E0,3.810615823E-1,-3.283272985E0,3.453964646E0
4.814601250E-1,6.653476524E-1,5.675251964E-1,-3.192702538E0,3.310305400E0
4.914601250E-1,5.305178761E-1,5.107721213E-1,-2.696472734E0,2.795228539E0
5.014601250E-1,8.360746551E-1,2.619903445E-1,-2.484825747E0,2.634771102E0
5.114601250E-1,1.199065125E0,-2.733865678E-3,-1.808871245E0,2.170202716E0
5.214601250E-1,1.165451821E0,-2.045326799E-1,-1.072788656E0,1.597180974E0
5.314601250E-1,1.339733931E0,-7.781164688E-1,-6.693208355E-1,1.687703358E0
5.414601250E-1,1.584173858E0,-1.296274793E0,-3.302881622E-1,2.073409130E0
5.514601250E-1,1.396371231E0,-1.218334917E0,-2.483218932E-1,1.869720927E0
5.614601250E-1,1.730486396E0,-1.126182213E0,-2.929548597E-1,2.085351791E0
5.714601250E-1,2.460257209E0,-1.691873430E0,4.619183421E-2,2.986207448E0
5.814601250E-1,3.283363616E0,-2.485180088E0,4.867894739E-1,4.146511872E0
5.914601251E-1,3.680901775E0,-2.996365315E0,1.731714896E0,5.052334061E0
6.014591251E-1,3.091870812E0,-2.935269513E0,3.139826167E0,5.294712513E0
6.114591251E-1,3.193737495E0,-2.643801016E0,4.057526198E0,5.801134531E0
6.214591251E-1,4.360328938E0,-2.576360400E0,4.652619554E0,6.877279264E0
6.314591251E-1,4.939147155E0,-2.569451037E0,5.356263546E0,7.725724071E0
6.414591251E-1,4.659449102E0,-2.533113808E0,5.628062595E0,7.733189515E0
6.514591251E-1,3.736809928E0,-3.263226390E0,5.122783640E0,7.131290706E0
6.614591251E-1,1.437670700E0,-3.594317375E0,4.987776108E0,6.313788478E0
6.714591251E-1,1.149072601E0,-4.068552585E0,2.301207680E0,4.813423394E0
6.814591249E-1,5.469251633E-2,-5.125924180E0,5.319878662E-1,5.153746313E0
6.914591249E-1,-4.647062945E-1,-5.429014603E0,1.808520412E-1,5.451867474E0
7.014591249E-1,-2.325069290E-1,-5.988867375E0,3.379971313E-1,6.002902129E0
7.114590001E-1,-4.303901553E-2,-6.212108806E0,7.458421773E-1,6.256870522E0
7.214589999E-1,3.664485133E-1,-6.000067717E0,1.097085006E0,6.110539471E0
7.314589999E-1,7.000450301E-1,-5.682693130E0,1.127637731E0,5.835634594E0
7.414589999E-1,6.642483759E-1,-4.870776832E0,1.148421367E0,5.048223894E0
7.514589999E-1,1.351948764E0,-4.101862126E0,9.186095658E-1,4.415527363E0
7.614579999E-1,1.732576776E0,-3.051349608E0,9.068122235E-1,3.624205447E0
7.714579999E-1,1.574121324E0,-2.205689320E0,1.196406104E0,2.962146331E0
7.814580000E-1,1.521579414E0,-1.688204595E0,1.702369475E0,2.839595129E0
7.914580000E-1,2.236148343E0,-1.262089631E0,2.353372153E0,3.483043230E0
8.014580000E-1,3.238433611E0,-5.391018811E-1,2.869142474E0,4.360052939E0
8.114580000E-1,3.410986115E0,3.664099216E-2,3.177653851E0,4.661936597E0
8.214580000E-1,2.989733403E0,1.169527915E-1,3.587721716E0,4.671609026E0
8.314580000E-1,2.363203077E0,7.392897874E-2,3.672709534E0,4.367950274E0
8.414580000E-1,2.609952654E0,2.424887109E-1,3.754487815E0,4.578955381E0
8.514580000E-1,3.213371276E0,9.988915443E-2,4.154877076E0,5.253449944E0
8.614580000E-1,4.201194041E0,-1.393128365E-1,4.089180100E0,5.864369815E0
8.714580000E-1,5.851631470E0,-3.703550380E-1,3.139945450E0,6.651166149E0
8.814580000E-1,6.930360897E0,-4.876303035E-1,2.558925172E0,7.403768196E0
8.914580001E-1,6.905697926E0,5.588300943E-1,1.739191146E0,7.143230415E0
9.014580001E-1,8.241473292E0,6.392141068E-1,1.069259861E-1,8.266916587E0
9.114580001E-1,9.510840075E0,5.033499581E-1,-5.494955993E-1,9.539988759E0
9.214570001E-1,9.932302701E0,2.087953001E-1,-5.415521568E-1,9.949246764E0
9.314570001E-1,1.107504628E1,-1.973154616E-1,-1.632642013E0,1.119647727E1
9.414570001E-1,1.177872594E1,-4.786969274E-1,-2.389710259E0,1.202822724E1
9.514570001E-1,1.255157699E1,-8.152819562E-1,-3.151109539E0,1.296673671E1
9.614570001E-1,1.375374114E1,-7.361141646E-1,-4.677337489E0,1.454595288E1
9.714570001E-1,1.450634796E1,-6.626053083E-1,-6.234215375E0,1.580312052E1
9.814569999E-1,1.520286595E1,-6.158737761E-1,-8.183633219E0,1.727652413E1
9.914569999E-1,1.529427781E1,-3.295742172E-1,-1.062207768E1,1.862396540E1
1.001457000E0,1.465185592E1,-5.185837090E-2,-1.239719880E1,1.919297031E1
1.011457000E0,1.400961997E1,-1.424598080E-1,-1.357336155E1,1.950707283E1
1.021457000E0,1.338510342E1,-5.787530199E-1,-1.408496719E1,1.943919364E1
1.031457000E0,1.172273300E1,-1.666173456E0,-1.365942321E1,1.807701428E1
1.041457000E0,9.623775537E0,-2.557172177E0,-1.259232506E1,1.605374834E1
1.051457000E0,7.546957389E0,-3.562316149E0,-1.144528846E1,1.416479051E1
1.061457000E0,4.686090771E0,-4.401149228E0,-1.033644003E1,1.217257383E1
1.071457000E0,3.431136789E0,-4.383416962E0,-8.409804690E0,1.008522974E1
1.081456000E0,2.927356476E0,-4.334377826E0,-6.535832884E0,8.370983130E0
1.091456000E0,7.099753565E-1,-4.536685640E0,-2.994705291E0,5.482138395E0
1.101456000E0,-9.465583795E-1,-4.587928884E0,-3.659760582E-1,4.698829927E0
1.111456000E0,-2.672499735E0,-6.823802408E0,3.636224955E0,8.180994197E0
1.121456000E0,-4.568758203E0,-1.056770325E1,8.424599315E0,1.426617598E1
1.131456000E0,-4.491236987E0,-1.121256928E1,1.177861952E1,1.687094536E1
1.141456000E0,-6.017372552E0,-1.071073550E1,1.238677672E1,1.744594122E1
1.151456000E0,-5.605183024E0,-7.257321408E0,1.013679387E1,1.366899340E1
1.161456000E0,-3.126170579E0,-3.898087245E0,6.006152329E0,7.812931106E0
1.171456000E0,-1.119714900E0,-8.958229664E-1,2.965163403E0,3.293699175E0
1.181456000E0,1.315500730E-1,1.254007025E0,2.671636686E-1,1.288881479E0
1.191456000E0,1.356742312E0,3.893498350E0,-2.670967472E0,4.912651661E0
1.201456000E0,3.465643548E0,2.287596532E0,-3.575810061E0,5.479981814E0
1.211456000E0,3.296221059E0,-2.311095907E0,-2.249433948E0,4.611528016E0
1.221456000E0,2.084718322E0,-2.299941466E0,-1.525892905E0,3.458920407E0
1.231456000E0,-6.876986343E-1,-1.744146369E0,-2.154360999E0,2.855914439E0
1.241455000E0,-1.977254684E0,1.419292609E0,-2.036301037E0,3.173397156E0
1.251455000E0,-5.954605615E-1,1.791792698E0,1.946730172E0,2.711983170E0
1.261455000E0,-4.343923405E0,4.125432837E-1,6.807141936E0,8.085607204E0
1.271455000E0,-5.246559255E0,4.501646200E0,6.236908017E0,9.310758516E0
1.281455000E0,-4.465097594E0,7.552786478E0,6.103828897E0,1.068823687E1
1.291455000E0,-4.353864841E0,8.732379790E0,5.930702198E0,1.141857366E1
1.301455000E0,-2.206718722E0,7.675898434E0,3.264733218E0,8.628296893E0
1.311455000E0,-2.685591066E0,6.201569785E0,3.142299539E0,7.452913092E0
1.321455000E0,-4.195190120E0,3.094481594E0,2.731333834E0,5.885203564E0
1.331455000E0,-6.476696484E0,1.113786116E0,1.239698157E-1,6.572935826E0
1.341455000E0,-8.044674724E0,1.695163659E0,-2.900036530E0,8.717831331E0
1.351455000E0,-7.743884010E0,5.277272925E-1,-4.050199637E0,8.755018718E0
1.361455000E0,-7.616634564E0,-1.180637917E0,-3.178707812E0,8.337338384E0
1.371455000E0,-7.834423467E0,-9.825620252E-1,-2.907940797E0,8.414258070E0
1.381455000E0,-8.010154517E0,-1.754994708E0,-1.938054950E0,8.426069000E0
1.391454000E0,-8.728059282E0,-2.265377405E0,-1.089438602E0,9.082831612E0
1.401454000E0,-8.448691013E0,-2.372981960E0,-1.355977496E0,8.879757777E0
1.411454000E0,-5.694081168E0,-2.438457327E0,-4.366228779E0,7.578429140E0
1.421454000E0,-4.242512805E0,5.826668537E-1,-4.291238823E0,6.062437315E0
1.431454000E0,-1.867017127E0,1.670164765E0,-4.202947621E0,4.892849068E0
1.441454000E0,-3.019379371E-1,3.492039049E-1,-3.629891835E0,3.659128943E0
1.451454000E0,2.104330468E0,2.352436014E0,-2.705080420E0,4.156876471E0
1.461454000E0,3.329438506E0,3.547266001E0,-2.708525015E0,5.568156302E0
1.471454000E0,3.634652054E0,3.396327145E0,-1.994094665E0,5.359304727E0
1.481454000E0,2.881068163E0,3.776025449E0,-1.164213454E0,4.890226469E0
1.491454000E0,2.147089401E0,3.423223752E0,-2.894623178E-1,4.051202561E0
1.501454000E0,6.213853616E-1,3.521173970E0,1.672922751E-1,3.579493344E0
1.511454000E0,-1.031145371E0,5.793794321E0,9.986452304E-2,5.885684865E0
1.521454000E0,-2.258149661E0,4.621493071E0,-3.477608120E-1,5.155421970E0
1.531454000E0,-2.258480614E0,2.910022990E0,-3.678963204E-1,3.701934115E0
1.541453000E0,-1.341924298E0,7.695263243E-1,-5.744468379E-1,1.650127496E0
1.551453000E0,-1.066635923E0,-2.624394107E-1,-4.956012279E-1,1.205075605E0
1.561453000E0,-1.051501867E0,1.281507357E0,-4.650758386E-2,1.658336588E0
1.571453000E0,-9.852166611E-1,3.258604167E0,2.744402361E-1,3.415328744E0
1.581453000E0,-9.882807483E-1,5.891080880E0,1.524836898E-2,5.973421572E0
1.591453000E0,-4.414094525E-1,6.381689755E0,1.020093914E-1,6.397750569E0
1.601453000E0,3.268115540E-1,6.607655988E0,3.231195124E-1,6.623619077E0
1.611453000E0,4.324675541E0,1.554812064E0,-1.423110548E0,4.810977315E0
1.621453000E0,9.003797600E0,-2.207219828E1,-6.803312595E0,2.478982393E1
1.631453000E0,-4.246224618E-1,-5.452607183E1,-6.812734798E0,5.495167121E1
1.641453000E0,-6.322210123E0,-5.369127186E1,-7.058509644E0,5.452105624E1
1.651453000E0,-7.100922423E0,-3.889313615E1,-1.733946193E0,3.957405347E1
1.661453000E0,-4.637191091E0,-1.387692794E1,2.544284914E0,1.485079311E1
1.671453000E0,-2.849679432E0,-5.294063205E-1,3.011534747E0,4.179747056E0
1.681453000E0,-3.644043267E0,4.560882588E0,3.078304102E0,6.599746772E0
1.691453000E0,-4.201498096E0,5.984420568E0,2.888220477E0,7.861786903E0
1.701452000E0,-5.811144764E0,6.128844455E0,1.282130671E0,8.542598954E0
1.711452250E0,-7.209598188E0,5.087599189E0,1.303417898E0,8.919690004E0
1.721452250E0,-7.990304389E0,2.765209678E0,1.231761439E0,8.544506132E0
1.731452250E0,-8.544482439E0,4.510916376E-1,1.136287225E0,8.631501171E0
1.741452250E0,-7.962976257E0,-1.593027127E-1,6.927573529E-1,7.994640766E0
1.751452250E0,-6.126725425E0,1.766995826E0,4.273941882E-1,6.390751479E0
1.761452250E0,-3.672953655E0,3.981729326E0,1.845755482E-1,5.420223714E0
1.771452250E0,-1.149281639E0,5.399665089E0,-1.913851424E-1,5.523935158E0
1.781452250E0,7.402326509E-1,6.409410819E0,-8.615859839E-1,6.509287352E0
1.791452250E0,1.778584130E0,6.810314051E0,-1.153785310E0,7.132668471E0
1.801452250E0,2.441552550E0,6.514258413E0,-1.414859981E0,7.099195045E0
1.811452250E0,2.657294635E0,6.039903043E0,-1.539857225E0,6.775898746E0
1.821452250E0,2.620692235E0,6.220066867E0,-1.436044589E0,6.900687189E0
1.831452250E0,2.587496422E0,6.145607253E0,-1.418745017E0,6.817364863E0
1.841452250E0,2.469998962E0,5.971515763E0,-1.467439460E0,6.626709134E0
1.851451250E0,2.189722620E0,5.758267223E0,-1.547872442E0,6.352041850E0
1.861451250E0,1.962800367E0,5.699368805E0,-1.242566071E0,6.154621068E0
1.871451250E0,2.357048005E0,5.648885699E0,-6.876958568E-1,6.159424529E0
1.881451250E0,2.548931111E0,5.723737076E0,-8.907765269E-2,6.266270881E0
1.891451250E0,2.628304725E0,5.574407959E0,4.186616640E-1,6.177158522E0
1.901451250E0,2.665202117E0,5.366854023E0,7.072112314E-1,6.033785889E0
1.911451250E0,2.522295874E0,5.055252977E0,9.011132348E-1,5.720975808E0
1.921451250E0,2.390117518E0,4.523658044E0,9.263372460E-1,5.199446561E0
1.931451250E0,2.048007163E0,3.730754551E0,1.128534987E0,4.403005119E0
1.941451250E0,1.679549546E0,2.943921638E0,1.407000446E0,3.669769958E0
1.951451250E0,1.116733697E0,2.125858161E0,1.521353273E0,2.842689370E0
1.961451250E0,4.674071234E-1,9.467367196E-1,1.536956714E0,1.864675783E0
1.971451250E0,-2.362011999E-1,-8.415219212E-1,1.784907894E0,1.987422034E0
1.981451250E0,-9.302504951E-1,-3.107841897E0,2.046234287E0,3.835508050E0
1.991451250E0,-1.875128970E0,-5.709887361E0,2.384182448E0,6.465543154E0
2.001450250E0,-3.161393329E0,-7.618752426E0,2.743704496E0,8.692969036E0
2.011450250E0,-4.375995968E0,-8.475999264E0,2.710296429E0,9.916532205E0
2.021450250E0,-2.961601572E0,-8.189633047E0,1.927494879E0,8.919439995E0
2.031450250E0,-8.072578222E-1,-7.528049247E0,8.923505974E-1,7.623613333E0
2.041450250E0,2.037835931E0,-6.862707442E0,-2.641620004E-1,7.163749736E0
2.051450250E0,4.455431270E0,-6.696818426E0,-2.119689349E0,8.318132468E0
2.061450250E0,5.428831000E0,-6.391578566E0,-4.330294715E0,9.438004816E0
2.071450250E0,6.305879434E0,-5.632239261E0,-9.482834251E0,1.270473848E1
2.081450250E0,6.017595915E0,-4.476042997E0,-1.289585637E1,1.491809415E1
2.091450250E0,3.544687963E0,-5.710293742E0,-5.436278014E0,8.644384653E0
2.101450250E0,1.490832123E0,-6.459984557E0,-1.945110347E0,6.909228261E0
2.111450250E0,1.086370276E-1,-6.133377802E0,-7.227881408E-1,6.176774883E0
2.121450250E0,-4.857111011E-1,-4.654035750E0,-1.140280581E0,4.816243748E0
2.131450250E0,-7.343148302E-1,-2.011079657E0,-4.166233246E-1,2.181108583E0
2.141449250E0,-9.654618430E-1,1.039202249E-1,3.481549144E-1,1.031565717E0
2.151449250E0,-1.213683603E0,8.999829680E-1,6.233775810E-1,1.634502015E0
2.161449250E0,-1.367283234E0,8.786686975E-1,8.250339425E-1,1.822691177E0
2.171449250E0,-2.230947391E0,5.661396986E-1,-2.039345098E-1,2.310677326E0
2.181449250E0,-3.508541353E0,-4.171508896E-1,-1.133763494E0,3.710700332E0
2.191449250E0,-5.265893658E0,-1.552680754E0,-3.777815136E-1,5.503014848E0
2.201449250E0,-6.071257567E0,-2.356202205E0,1.120891433E0,6.608196039E0
2.211449250E0,-5.053884144E0,-3.448670835E0,1.805054183E0,6.379129727E0
2.221449250E0,-4.646510383E0,-3.341177377E0,2.379629660E0,6.198077309E0
2.231449250E0,-5.253488206E0,-3.825540841E-1,2.450111997E0,5.809348910E0
2.241449250E0,-5.359350291E0,1.866097945E0,1.986663000E0,6.012635608E0
2.251449250E0,-4.062658007E0,3.043374006E0,1.898944094E0,5.419714392E0
2.261449250E0,-2.043719107E0,3.731442184E0,1.935630695E0,4.674089724E0
2.271449250E0,-1.162806248E0,4.544426769E0,2.007185411E0,5.102227583E0
2.281448250E0,-9.474401397E-1,5.139142980E0,1.661965799E0,5.483663347E0
2.291448250E0,-6.978713277E-1,5.305798566E0,1.280467722E0,5.502555807E0
2.301448250E0,-2.505274630E-1,5.292758691E0,1.069210233E0,5.405485093E0
2.311448250E0,5.243666053E-2,5.303664917E0,9.145523290E-1,5.382194452E0
2.321448250E0,-4.447769371E-1,5.822052745E0,9.149009693E-1,5.910259594E0
2.331448250E0,-4.344118702E-1,6.026380187E0,8.392706700E-1,6.100028450E0
2.341448250E0,-4.145675898E-2,6.040517585E0,6.856748398E-1,6.079450744E0
2.351448250E0,3.338798144E-1,5.937611852E0,6.181090935E-1,5.979027437E0
2.361448250E0,6.782372546E-1,5.764516143E0,6.068614626E-1,5.835917491E0
2.371448250E0,1.025270088E0,5.653972777E0,5.590077766E-1,5.773307250E0
2.381448250E0,1.402608456E0,5.499393445E0,5.224755426E-1,5.699440274E0
2.391448250E0,1.755095280E0,5.123047349E0,4.299071022E-1,5.432383796E0
2.401448250E0,2.117110142E0,4.642764072E0,4.504987299E-1,5.122534792E0
2.411447250E0,2.299514034E0,4.055887808E0,4.887711684E-1,4.687951361E0
2.421447250E0,2.102874803E0,3.253370324E0,5.146462671E-1,3.907858964E0
2.431447250E0,1.447869706E0,2.338032568E0,5.827008406E-1,2.811096448E0
2.441447250E0,6.112933597E-1,1.303470669E0,6.208059756E-1,1.567837815E0
2.451447250E0,8.770121813E-2,1.726916671E-1,6.854082799E-1,7.122488510E-1
2.461447250E0,3.830373564E-1,-9.900523084E-1,4.860520669E-1,1.167547773E0
2.471447250E0,9.631378672E-1,-2.149083302E0,3.526362205E-1,2.381290804E0
2.481447250E0,1.371103073E0,-3.229768038E0,3.603416812E-1,3.527204466E0
2.491447250E0,2.035360220E0,-4.426734012E0,-2.381745621E-1,4.878052108E0
2.501447250E0,2.838229415E0,-5.388851248E0,-1.025318620E0,6.176288712E0
2.511447250E0,3.244063603E0,-6.335978562E0,-1.847315519E0,7.353988552E0
2.521447250E0,3.034347659E0,-6.897775533E0,-2.764054853E0,8.026616488E0
2.531446250E0,2.208728410E0,-6.863420218E0,-3.318214191E0,7.936974467E0
2.541446250E0,1.397612010E0,-6.718028616E0,-2.887776089E0,7.444761820E0
2.551446250E0,1.137445120E0,-6.393434472E0,-2.573453164E0,6.985159049E0
2.561446250E0,1.526589893E0,-5.986818511E0,-2.779908409E0,6.774980690E0
2.571446250E0,2.118925410E0,-5.708271775E0,-3.331647584E0,6.940755519E0
2.581446250E0,2.566745238E0,-5.147812647E0,-4.170400264E0,7.104955632E0
2.591446250E0,2.860616941E0,-4.430083882E0,-4.710330988E0,7.070784292E0
2.601446250E0,2.860201789E0,-4.323877396E0,-4.920978686E0,7.147915867E0
2.611446250E0,2.717859510E0,-4.026647052E0,-4.066801051E0,6.335575553E0
2.621446250E0,2.460220079E0,-3.127766284E0,-2.845952125E0,4.892345885E0
2.631446250E0,2.191195680E0,-1.429914368E0,-1.766602893E0,3.157036489E0
2.641446250E0,1.819988118E0,1.355016214E-1,-1.292467378E0,2.236333911E0
2.651445250E0,1.302203577E0,9.147547889E-1,-1.198738266E0,1.992356371E0
2.661445250E0,6.440599868E-1,7.647158200E-1,-1.021905016E0,1.429648003E0
2.671445250E0,-9.927962606E-1,3.138761973E-1,-5.615888107E-1,1.183023531E0
2.681445250E0,-3.690805205E0,-4.958503193E-1,1.122653345E-1,3.725656198E0
2.691445250E0,-5.883642052E0,-1.754522545E0,5.178937741E-1,6.161477673E0
2.701445250E0,-6.935384824E0,-2.899071155E0,3.257110349E-1,7.523979260E0
2.711448875E0,-7.330311617E0,-3.485409476E0,-3.832265139E-2,8.116835358E0
2.721448875E0,-7.673545514E0,-3.373466871E0,-7.608840664E-1,8.416800108E0
2.731448875E0,-7.901742461E0,-4.560198464E0,-2.464176890E0,9.450138184E0
2.741448875E0,-8.373765961E0,-2.427427139E0,-2.489881250E0,9.067076018E0
2.751448875E0,-7.833258702E0,1.637272423E0,-1.636741934E0,8.168202191E0
2.761447875E0,-5.500316720E0,4.046306561E0,-4.418037741E-1,6.842607060E0
2.771447875E0,-2.458852415E0,5.373753152E0,-8.701680154E-3,5.909589991E0
2.781447875E0,-9.329595101E-1,5.952740353E0,4.624482460E-1,6.043127464E0
2.791447875E0,-2.738163382E-1,6.249071395E0,9.543439472E-1,6.327451388E0
2.801447875E0,3.044738746E-1,6.579596370E0,1.174935128E0,6.690610233E0
2.811447875E0,1.013379775E0,6.672778768E0,1.099188834E0,6.838211107E0
2.821447875E0,1.577745721E0,7.009905249E0,1.214959319E0,7.287261441E0
2.831447875E0,1.673315537E0,7.275435498E0,1.444064776E0,7.603766807E0
2.841447875E0,1.508902358E0,7.009222294E0,1.398278447E0,7.304872765E0
2.851447875E0,1.047888288E0,6.570931966E0,1.223827060E0,6.765572366E0
2.861447875E0,7.438903767E-1,6.165635136E0,1.328797591E0,6.350915884E0
2.871446875E0,8.408108997E-1,5.823273059E0,1.393358892E0,6.046397364E0
2.881446875E0,5.996845901E-1,5.512202940E0,1.399708968E0,5.718670130E0
2.891446875E0,2.110122719E-1,4.933456644E0,1.570767069E0,5.181778635E0
2.901446875E0,1.560428900E-1,4.433773475E0,1.710871180E0,4.754973902E0
2.911446875E0,-4.597110182E-2,3.877017388E0,1.862530120E0,4.301441110E0
2.921446875E0,-4.423143822E-1,3.388032870E0,2.148117050E0,4.035940485E0
2.931446875E0,-3.202593103E-1,2.811826605E0,2.509289035E0,3.782256779E0
2.941446875E0,-3.792778891E-1,2.307246392E0,2.656863695E0,3.539231884E0
2.951446875E0,-4.214488855E-1,1.750516033E0,2.703630603E0,3.248314022E0
2.961446875E0,-4.725187594E-1,9.477833712E-1,2.682915380E0,2.884372069E0
2.971445875E0,-6.072529337E-1,-6.807328463E-2,2.690170313E0,2.758696506E0
2.981445875E0,-8.376529647E-1,-1.307410523E0,2.714077823E0,3.126851963E0
2.991445875E0,-9.550899057E-1,-2.555053731E0,2.673256364E0,3.819266407E0
3.001445875E0,-1.075337457E0,-3.888898931E0,2.557370982E0,4.777031702E0
3.011445875E0,-9.992023239E-1,-5.173193071E0,2.477009189E0,5.822019096E0
3.021445875E0,-6.525960445E-1,-6.244953786E0,2.399720693E0,6.721903658E0
3.031445875E0,-4.326574132E-2,-6.993047726E0,2.232710473E0,7.340952559E0
3.041445875E0,9.231733176E-1,-7.308530154E0,2.005756644E0,7.634783671E0
3.051445875E0,2.120188263E0,-7.377845387E0,1.535001990E0,7.828411840E0
3.061445875E0,3.372792979E0,-7.307993964E0,5.583507688E-1,8.068101625E0
3.071445875E0,3.466511859E0,-6.752837090E0,-9.772182548E-1,7.653265235E0
3.081444875E0,3.283354846E0,-5.663454037E0,-2.891133268E0,7.156380526E0
3.091444875E0,3.696120908E0,-4.274492982E0,-5.163831679E0,7.654917219E0
3.101444875E0,4.319113085E0,-3.785469872E0,-8.577397585E0,1.032260962E1
3.111444875E0,5.264047692E0,-4.071015725E0,-1.153533675E1,1.331718293E1
3.121444875E0,3.507182752E0,-4.896169535E0,-7.883238362E0,9.920597464E0
3.131444875E0,9.577902961E-1,-6.155662710E0,-3.678907875E0,7.234909039E0
3.141444875E0,8.060196742E-1,-4.364415557E0,-2.653243099E0,5.170830670E0
3.151444875E0,9.145151992E-1,-1.366886061E0,-1.758893924E0,2.407991568E0
3.161444875E0,7.747661604E-1,4.443848813E-1,-8.210648525E-1,1.213213921E0
3.171443875E0,5.631658047E-2,1.852948726E0,5.235633440E-1,1.926320097E0
3.181443875E0,-5.551812856E-1,1.913490213E0,4.284979963E-1,2.037960153E0
3.191443875E0,-1.449621532E0,9.859580880E-1,8.862250543E-1,1.964411053E0
3.201443875E0,-3.530246510E0,-3.028249598E-1,1.775613452E0,3.963224257E0
3.211443875E0,-5.357445268E0,-1.343207762E0,1.941942179E0,5.854704631E0
3.221443875E0,-6.585558191E0,-1.846507434E0,1.266201686E0,6.955748205E0
3.231443875E0,-6.502007911E0,-2.312758563E0,8.289001215E-1,6.950685898E0
3.241443875E0,-7.107597020E0,-2.598016732E0,9.814902306E-1,7.630920613E0
3.251443875E0,-7.781126096E0,-1.764911293E0,1.226842908E0,8.072544749E0
3.261443875E0,-7.577721344E0,2.634813845E-1,1.208603103E0,7.678020882E0
3.271442875E0,-5.524876195E0,2.447073199E0,1.645178443E0,6.262510385E0
3.281442875E0,-3.160086184E0,4.014150968E0,1.890670284E0,5.447401840E0
3.291442875E0,-1.962875796E0,4.717009678E0,1.621596622E0,5.360283323E0
3.301442875E0,-1.188151005E0,5.091986355E0,1.353628085E0,5.401142179E0
3.311442875E0,-6.617869905E-1,4.825396591E0,1.405842551E0,5.069399132E0
3.321442875E0,-1.822778848E-1,4.294494553E0,1.299018599E0,4.490362793E0
3.331442875E0,2.164627540E-1,3.965821391E0,1.319848720E0,4.185283273E0
3.341442875E0,5.100900435E-1,3.960715603E0,1.468481433E0,4.254867525E0
3.351442875E0,8.111640546E-1,4.199836317E0,1.497716342E0,4.532081912E0
3.361442875E0,1.043050009E0,4.579561518E0,1.368189991E0,4.892063049E0
3.371441875E0,1.089922167E0,4.989395787E0,1.198839422E0,5.245876153E0
3.381441875E0,9.014816093E-1,5.347751169E0,1.099736134E0,5.533582133E0
3.391441875E0,7.955534506E-1,5.484633903E0,9.783092722E-1,5.627717421E0
3.401441875E0,8.787107974E-1,5.273327808E0,7.632149128E-1,5.400242202E0
3.411441875E0,1.130110665E0,4.943646587E0,3.825027017E-1,5.085577648E0
3.421441875E0,1.357251019E0,4.244830642E0,1.564340687E-1,4.459281234E0
3.431441875E0,1.500235030E0,3.412223386E0,5.598131575E-2,3.727882440E0
3.441441875E0,1.699464870E0,2.429329239E0,-1.082085729E-1,2.966737348E0
3.451441875E0,1.625116062E0,1.621944532E0,-2.082720474E-1,2.305446491E0
3.461440875E0,1.254481527E0,8.025747871E-1,-3.607054511E-1,1.532305000E0
3.471440875E0,1.028952665E0,-9.076048136E-3,-5.483624089E-1,1.165987690E0
3.481440875E0,1.182823022E0,-8.096300375E-1,-6.485895324E-1,1.573289382E0
3.491440875E0,1.671305557E0,-1.423118150E0,-6.762445235E-1,2.296918411E0
3.501440875E0,1.990364726E0,-1.993592389E0,-7.575102961E-1,2.917153442E0
3.511440875E0,2.185837145E0,-2.607454138E0,-1.100841258E0,3.576108581E0
3.521440875E0,2.241649111E0,-3.226578966E0,-1.007803870E0,4.056041322E0
3.531440875E0,2.304369270E0,-3.747261241E0,-1.044105724E0,4.521309689E0
3.541439875E0,2.237074834E0,-4.220980434E0,-1.000161560E0,4.880727690E0
3.551439875E0,2.096453391E0,-4.578556382E0,-1.195391904E0,5.175640750E0
3.561439875E0,2.112073058E0,-4.921958095E0,-1.168664866E0,5.481997962E0
3.571439875E0,2.288556352E0,-5.325074497E0,-1.143538796E0,5.907756728E0
3.581439875E0,2.509102217E0,-5.500583353E0,-1.446624541E0,6.216488858E0
3.591439875E0,2.810188507E0,-5.631226523E0,-1.691025876E0,6.516704697E0
3.601439875E0,3.120437969E0,-5.674736239E0,-2.083122616E0,6.802879121E0
3.611439875E0,3.087135445E0,-5.391326959E0,-2.698129835E0,6.773235286E0
3.621439875E0,3.122461690E0,-5.036654153E0,-3.037768865E0,6.659256095E0
3.631438875E0,3.102426206E0,-5.032093325E0,-2.820800911E0,6.550109112E0
3.641438875E0,3.046475953E0,-5.007710436E0,-2.249232658E0,6.278314033E0
3.651438875E0,2.942352245E0,-3.880315803E0,-1.569036586E0,5.116264582E0
3.661438875E0,2.692389624E0,-2.090630441E0,-9.758312953E-1,3.545693761E0
3.671438875E0,2.379422961E0,-3.091229957E-1,-6.156100667E-1,2.477132699E0
3.681438875E0,1.893138686E0,9.885858268E-1,-3.921259761E-1,2.171414010E0
3.691438875E0,1.417457899E0,1.260027611E0,-3.235123722E-1,1.923932621E0
3.701438875E0,6.544675921E-1,8.601710308E-1,-2.414198399E-1,1.107477120E0
3.711435500E0,-8.805915543E-1,-1.040512025E-2,4.440302476E-3,8.806642200E-1
3.721434500E0,-4.517395091E0,-1.092030673E0,8.014988264E-1,4.716120203E0
3.731434500E0,-6.562776269E0,-2.421029701E0,8.485292244E-1,7.046376304E0
3.741434500E0,-7.007532449E0,-2.887348073E0,4.127689862E-1,7.590300926E0
3.751434500E0,-7.177547261E0,-2.489302375E0,-4.141174272E-1,7.608239234E0
3.761434500E0,-7.486396022E0,-3.152122276E0,-2.326565154E0,8.449550619E0
3.771434500E0,-8.181451038E0,-3.305891769E0,-3.191921350E0,9.383678563E0
3.781434500E0,-8.360555931E0,1.047715210E0,-2.607879231E0,8.820296862E0
3.791434500E0,-6.672547803E0,3.863543065E0,-1.773904750E0,7.911801138E0
3.801433500E0,-3.433519822E0,4.814447095E0,-1.203193113E0,6.034536674E0
3.811433500E0,-1.217082151E0,5.646321110E0,-5.695516951E-1,5.804017589E0
3.821433500E0,-2.855698264E-1,6.198067887E0,-8.053121611E-2,6.205165666E0
3.831433500E0,1.821486613E-1,6.601121725E0,3.319840010E-1,6.611973952E0
3.841433500E0,8.014544606E-1,6.887863918E0,2.778352757E-1,6.939898490E0
3.851433500E0,1.383109746E0,7.128707222E0,3.162139142E-1,7.268524642E0
3.861433500E0,1.792956586E0,6.917769502E0,7.469024237E-1,7.185269058E0
3.871433500E0,1.806010787E0,6.351446786E0,1.053619144E0,6.686752914E0
3.881432500E0,1.611589990E0,5.765036545E0,1.163359687E0,6.098054970E0
3.891432500E0,1.455952312E0,5.193221539E0,1.310157398E0,5.550302649E0
3.901432500E0,1.454162187E0,4.517224352E0,1.169636089E0,4.887530265E0
3.911432500E0,1.088356867E0,3.750957851E0,9.576708667E-1,4.021360337E0
3.921432500E0,7.168595758E-1,3.328926875E0,1.157857457E0,3.596703447E0
3.931432500E0,3.569833329E-1,2.937057592E0,1.424522066E0,3.283749003E0
3.941432500E0,1.757895219E-1,2.583952425E0,1.718234871E0,3.108060997E0
3.951432500E0,1.955510643E-1,2.391570843E0,1.824864842E0,3.014628171E0
3.961432500E0,3.646744680E-1,2.101908551E0,1.954986586E0,2.893610129E0
3.971431500E0,5.149651596E-1,1.703941791E0,2.138643829E0,2.782517596E0
3.981431500E0,6.961610171E-1,1.125438155E0,2.197406739E0,2.565121357E0
3.991431500E0,8.316839808E-1,5.357142967E-1,2.263930804E0,2.470641766E0
4.001431500E0,8.922848162E-1,-1.431404239E-1,2.267131862E0,2.440604075E0
4.011431500E0,9.562039465E-1,-1.016488155E0,2.220200062E0,2.622377256E0
4.021431500E0,1.104353388E0,-2.031005799E0,2.153738855E0,3.159615802E0
4.031431500E0,1.451675659E0,-3.346408296E0,1.865458260E0,4.097041032E0
4.041431500E0,1.954449958E0,-4.653602471E0,1.299484037E0,5.211962141E0
4.051430500E0,2.318606655E0,-5.520945697E0,2.041860862E-1,5.991533207E0
4.061430500E0,2.506050263E0,-5.713831893E0,-5.670384157E-1,6.264957732E0
4.071430500E0,2.569018343E0,-5.516081398E0,-6.959215736E-1,6.124648241E0
4.081430500E0,2.757943635E0,-5.263427888E0,-7.579533689E-1,5.990360551E0
4.091430500E0,2.424321098E0,-5.328096339E0,-1.372581103E0,6.012480542E0
4.101430500E0,2.712150581E0,-5.847676413E0,-2.705905463E0,6.990923013E0
4.111430500E0,3.352765388E0,-6.075500892E0,-4.611707171E0,8.331901936E0
4.121430500E0,3.468764207E0,-5.776925688E0,-5.492476773E0,8.693244310E0
4.131429500E0,2.310023674E0,-6.241578189E0,-3.053403150E0,7.322347878E0
4.141429500E0,7.834809968E-1,-7.085913205E0,-1.156988561E0,7.222370176E0
4.151429500E0,3.008895314E-1,-6.602315142E0,-1.021468960E0,6.687637742E0
4.161429500E0,-3.565544397E-1,-4.428447247E0,-1.176605823E0,4.595941400E0
4.171429500E0,-1.055528406E0,-2.002442735E0,-9.191109645E-1,2.443088637E0
4.181429500E0,-2.462297595E0,-3.317733550E-1,-6.665193614E-1,2.572397921E0
4.191429500E0,-4.362837102E0,8.456822151E-1,-1.580204183E0,4.716627104E0
4.201429500E0,-5.221876404E0,1.291782669E0,-2.334061139E0,5.863832965E0
4.211428500E0,-5.531397010E0,5.278094459E-1,-1.885182087E0,5.867610007E0
4.221428500E0,-5.633025711E0,-2.587077177E-1,-9.993781058E-1,5.726837255E0
4.231428500E0,-6.057251147E0,-1.499497989E0,-2.394621190E-1,6.244687965E0
4.241428500E0,-5.725667242E0,-2.166042566E0,7.848846940E-1,6.171794694E0
4.251428500E0,-5.836201252E0,4.451309860E-1,1.344829195E0,6.005660015E0
4.261428500E0,-6.014566473E0,2.096548993E0,1.177482029E0,6.477421668E0
4.271428500E0,-5.214791332E0,2.368477850E0,1.110575629E0,5.834133543E0
4.281427500E0,-3.885138001E0,2.538685620E0,1.575673760E0,4.901221252E0
4.291427500E0,-2.123425427E0,2.732396858E0,1.780512249E0,3.891677274E0
4.301427500E0,-9.141326451E-1,3.109782003E0,1.345831407E0,3.509650236E0
4.311427500E0,-4.730321449E-1,3.586764527E0,1.062839034E0,3.770711603E0
4.321427500E0,-2.999095380E-2,3.827107310E0,1.257668259E0,4.028570375E0
4.331427500E0,3.345841116E-1,3.800351620E0,1.719160924E0,4.184511112E0
4.341427500E0,2.472378194E-1,3.781793143E0,2.063131571E0,4.315043197E0
4.351426500E0,-4.633129030E-2,3.948444636E0,2.154631286E0,4.498310529E0
4.361426500E0,-2.397150841E-1,4.224488178E0,2.308836250E0,4.820216647E0
4.371426500E0,-3.248742253E-2,4.500815896E0,2.379357179E0,5.091143265E0
4.381426500E0,4.402585012E-1,4.726350020E0,2.257280327E0,5.256189355E0
4.391426500E0,7.702203888E-1,4.927267951E0,2.046534980E0,5.390687742E0
4.401426500E0,9.321020159E-1,5.056082697E0,1.852589854E0,5.464876538E0
4.411426500E0,1.061489789E0,5.029373785E0,1.725672237E0,5.422112680E0
4.421426500E0,1.092335021E0,4.699528257E0,1.665110286E0,5.104052694E0
4.431425500E0,1.213199015E0,4.186410525E0,1.560977515E0,4.629744673E0
4.441425500E0,1.184052984E0,3.632918939E0,1.462980519E0,4.091502595E0
4.451425500E0,1.023750105E0,3.013677751E0,1.404600749E0,3.478968400E0
4.461425500E0,9.449612126E-1,2.249667106E0,1.507143223E0,2.868001826E0
4.471425500E0,8.330121759E-1,1.466818485E0,1.484499442E0,2.247043468E0
4.481425500E0,5.205340478E-1,7.428022099E-1,1.445539152E0,1.706544537E0
4.491425500E0,4.383210263E-1,8.830055773E-2,1.417473832E0,1.486322433E0
4.501424500E0,7.698087448E-1,-5.783884460E-1,1.246426256E0,1.575029241E0
4.511424500E0,1.390176106E0,-1.366394311E0,9.258783858E-1,2.157979102E0
4.521424500E0,1.697764792E0,-2.167251186E0,6.332745051E-1,2.824963644E0
4.531424500E0,1.926682701E0,-2.996028516E0,3.924909885E-1,3.583621391E0
4.541424500E0,2.077096768E0,-3.843326316E0,1.346789181E-1,4.370769563E0
4.551424500E0,2.285079598E0,-4.490542338E0,-4.527140938E-2,5.038711021E0
4.561424500E0,2.473608741E0,-4.819760460E0,-7.272461312E-1,5.466051411E0
4.571423500E0,2.274069875E0,-4.875080967E0,-1.544213401E0,5.596642142E0
4.581423500E0,2.231407128E0,-5.063914458E0,-1.948133211E0,5.866654107E0
4.591423500E0,2.296274677E0,-5.270218844E0,-2.138417981E0,6.133589122E0
4.601423500E0,2.736823785E0,-5.458572278E0,-2.582712815E0,6.629978976E0
4.611423500E0,3.170292207E0,-5.596074232E0,-3.376287568E0,7.264028994E0
4.621423500E0,3.332077355E0,-5.479525775E0,-4.751696531E0,7.981639063E0
4.631423500E0,3.400084274E0,-5.005113103E0,-5.766198971E0,8.358276187E0
4.641422500E0,3.390065947E0,-4.409189442E0,-5.672694976E0,7.944366995E0
4.651422500E0,3.177763194E0,-4.065645642E0,-4.775597609E0,7.030930659E0
4.661422500E0,2.949930237E0,-3.394961820E0,-3.345351119E0,5.605285744E0
4.671422500E0,2.850472899E0,-2.311226592E0,-2.146597066E0,4.251451878E0
4.681422500E0,2.617766288E0,-9.559115857E-1,-1.738990002E0,3.284897795E0
4.691422500E0,2.301699139E0,2.632474959E-2,-1.439195069E0,2.714736519E0
4.701422500E0,1.936129462E0,1.648651689E-1,-1.188577559E0,2.277826690E0
4.711425042E0,1.319349075E0,-3.209770560E-1,-1.021995063E0,1.699465257E0
4.721425042E0,4.630959713E-1,-9.114715773E-1,-8.038295265E-1,1.300530747E0
4.731425042E0,-9.563148974E-1,-1.597787930E0,-3.646159959E-1,1.897474447E0
4.741425042E0,-4.820632864E0,-2.042435351E0,8.780096432E-1,5.308572719E0
4.751425042E0,-7.118844139E0,-2.889032071E0,1.181418301E0,7.773042994E0
4.761425042E0,-7.340282289E0,-3.375045619E0,8.804749024E-1,8.126863667E0
4.771425042E0,-7.881719840E0,-3.460075244E0,2.975719674E-1,8.612907605E0
4.781424042E0,-8.058617994E0,-3.189906399E0,-8.570708370E-1,8.709270763E0
4.791424042E0,-7.777229512E0,-3.729930094E0,-2.419982464E0,8.958459271E0
4.801424042E0,-6.707076196E0,-2.817720598E-1,-2.594383857E0,7.196880866E0
4.811424042E0,-5.235116254E0,3.168989739E0,-1.453242420E0,6.289741783E0
4.821424042E0,-3.036861377E0,5.461630372E0,-7.194604173E-2,6.249568751E0
4.831424042E0,-1.409913383E0,6.351485962E0,5.302360404E-1,6.527662670E0
4.841424042E0,-7.531102663E-1,6.900973960E0,8.493994363E-1,6.993718330E0
4.851423042E0,-4.632105768E-2,6.889534467E0,1.028740411E0,6.966070460E0
4.861423042E0,3.504180792E-1,6.841913574E0,1.155061027E0,6.947570810E0
4.871423042E0,9.295935604E-1,6.431630824E0,1.442599318E0,6.656659225E0
4.881423042E0,1.191784757E0,5.924858490E0,1.366405420E0,6.196076404E0
4.891423042E0,1.248298973E0,5.746678042E0,1.185655559E0,5.999028084E0
4.901423042E0,1.124889101E0,5.935500423E0,1.263100469E0,6.171787711E0
4.911422042E0,8.191226998E-1,5.801526094E0,1.281520367E0,5.997579634E0
4.921422042E0,7.994158289E-1,5.518569973E0,1.492665664E0,5.772497813E0
4.931422042E0,8.589577335E-1,5.348400795E0,1.824842476E0,5.716051917E0
4.941422042E0,9.201161009E-1,5.022027928E0,1.864187075E0,5.435307866E0
4.951422042E0,8.893623778E-1,4.563476413E0,1.779351285E0,4.978189772E0
4.961422042E0,7.642468733E-1,4.113686365E0,1.785402861E0,4.549082564E0
4.971422042E0,6.442337953E-1,3.727033968E0,1.968604313E0,4.263944456E0
4.981421042E0,5.833115092E-1,3.110519337E0,2.059976413E0,3.776120454E0
4.991421042E0,3.473058987E-1,2.106893887E0,2.262229556E0,3.110836833E0
5.001421042E0,2.264515525E-1,1.123045474E0,2.384892154E0,2.645793270E0
5.011421042E0,2.743032651E-1,1.346151835E-1,2.367801912E0,2.387435742E0
5.021421042E0,2.974930300E-1,-1.004255195E0,2.253901659E0,2.485377897E0
5.031421042E0,2.839701743E-1,-2.036534926E0,2.080141706E0,2.924910782E0
5.041420042E0,3.907368238E-1,-3.034390343E0,2.052942798E0,3.684396036E0
5.051420042E0,9.544527054E-1,-4.133689690E0,1.773405544E0,4.598188518E0
5.061420042E0,1.958464072E0,-5.143365254E0,9.338202202E-1,5.582276226E0
5.071420042E0,2.882850394E0,-5.828009303E0,-4.175169253E-1,6.515430854E0
5.081420042E0,3.375753424E0,-5.964798481E0,-1.369507953E0,6.989283521E0
5.091420042E0,3.526200529E0,-5.722147803E0,-1.978695730E0,7.006589929E0
5.101419042E0,3.686863012E0,-5.629870554E0,-3.046691716E0,7.387200534E0
5.111419042E0,4.225138681E0,-5.465898839E0,-6.185038537E0,9.272677537E0
5.121419042E0,5.636041120E0,-3.321769298E0,-1.431392077E1,1.573808878E1
5.131419042E0,4.149440920E0,-2.335266834E0,-8.719673206E0,9.934990284E0
5.141419042E0,1.962679768E0,-4.448231885E0,-3.546360852E0,6.017936031E0
5.151419042E0,3.577161352E-1,-6.443051021E0,-9.443146567E-1,6.521702037E0
5.161418042E0,-7.322264971E-1,-6.619118870E0,-1.648936741E-1,6.661537374E0
5.171418042E0,-1.400148240E0,-5.288969110E0,-2.660237539E-1,5.477625214E0
5.181418042E0,-1.794736771E0,-3.067171004E0,3.230762064E-1,3.568332423E0
5.191418042E0,-2.648967615E0,-1.535422697E0,1.328788089E0,3.337698320E0
5.201418042E0,-3.760434726E0,-6.748774445E-1,1.554249562E0,4.124563079E0
5.211418042E0,-6.078879998E0,2.205780244E-1,3.739377733E-1,6.094363474E0
5.221417042E0,-6.771045320E0,1.476998488E0,-2.057471466E0,7.229230118E0
5.231417042E0,-4.999358273E0,1.487619955E0,-1.784572556E0,5.512830079E0
5.241417042E0,-4.351865094E0,-1.257244921E-1,-9.134986608E-1,4.448484713E0
5.251417042E0,-4.328095285E0,-9.730848581E-1,1.060137766E0,4.561051964E0
5.261417042E0,-5.185363466E0,1.859084210E0,2.159995376E0,5.916905305E0
5.271417042E0,-6.097123311E0,3.070372939E0,1.612048265E0,7.014328354E0
5.281416042E0,-5.042210763E0,2.273968134E0,1.403051383E0,5.706432654E0
5.291416042E0,-4.244292698E0,1.126542109E0,1.836588509E0,4.759850311E0
5.301416042E0,-3.518115584E0,4.361233503E-1,2.097232533E0,4.118947090E0
5.311416042E0,-2.607862274E0,4.570557976E-1,2.463633099E0,3.616536145E0
5.321416042E0,-1.422562664E0,8.991713744E-1,2.552525979E0,3.057381652E0
5.331415042E0,-4.931339952E-1,1.415798020E0,2.403177420E0,2.832477164E0
5.341415042E0,5.674328104E-2,1.837156566E0,2.491482217E0,3.096102015E0
5.351415042E0,2.035316366E-1,2.267285351E0,2.730869565E0,3.555229468E0
5.361415042E0,-4.807990015E-2,2.802333650E0,2.834608526E0,3.986275337E0
5.371415042E0,-3.000985493E-1,3.566539008E0,2.787392552E0,4.536498305E0
5.381415042E0,-2.993498133E-1,4.276891510E0,2.577980078E0,5.002738508E0
5.391414042E0,5.719804823E-2,4.640300640E0,2.242140424E0,5.153916504E0
5.401414042E0,5.593737392E-1,4.713159286E0,1.919817338E0,5.119811330E0
5.411414042E0,9.929763548E-1,4.646233225E0,1.586768413E0,5.009123598E0
5.421414042E0,1.200188083E0,4.947438506E0,1.236910644E0,5.239040671E0
5.431414042E0,9.492609626E-1,5.297607787E0,5.849237327E-1,5.413675314E0
5.441413042E0,8.997926411E-1,4.760672591E0,-2.253331263E-1,4.850196422E0
5.451413042E0,1.388427496E0,3.622453592E0,-5.444879707E-1,3.917444076E0
5.461413042E0,1.669818318E0,2.771094316E0,-3.928263994E-1,3.259074945E0
5.471413042E0,1.885653958E0,2.230654884E0,-4.591724896E-1,2.956746765E0
5.481413042E0,1.953046626E0,1.768802031E0,-6.495601702E-1,2.713849694E0
5.491413042E0,1.700184078E0,1.294392282E0,-9.062821734E-1,2.321082647E0
5.501412042E0,1.284468680E0,6.953847992E-1,-1.045144190E0,1.796036243E0
5.511412042E0,1.089023450E0,2.104179025E-2,-1.149803503E0,1.583812781E0
5.521412042E0,1.212693815E0,-5.471035033E-1,-1.267324351E0,1.837405656E0
5.531412042E0,1.604589119E0,-1.039289373E0,-1.530991677E0,2.449237464E0
5.541412042E0,1.890409498E0,-1.583203804E0,-1.733497127E0,3.014165664E0
5.551412042E0,2.125424883E0,-2.273229046E0,-1.836361345E0,3.613478133E0
5.561411042E0,2.272288521E0,-2.923158175E0,-1.999401598E0,4.207820765E0
5.571411042E0,2.322550602E0,-3.547472992E0,-2.097360002E0,4.730510005E0
5.581411042E0,2.165669514E0,-4.146947667E0,-2.307957999E0,5.216701019E0
5.591411042E0,2.081340824E0,-4.677932151E0,-2.172661614E0,5.561967936E0
5.601411042E0,1.879112531E0,-4.907955183E0,-2.241237175E0,5.713338083E0
5.611410042E0,2.008416543E0,-4.893419005E0,-2.621912549E0,5.903703243E0
5.621410042E0,2.431201517E0,-4.835516367E0,-2.901046929E0,6.140768082E0
5.631410042E0,3.070000471E0,-4.985306829E0,-3.258724619E0,6.700557680E0
5.641410042E0,3.381238990E0,-5.715505366E0,-3.773881275E0,7.638190792E0
5.651410042E0,3.474119087E0,-6.031380141E0,-3.946602763E0,8.001420074E0
5.661409042E0,3.263413501E0,-5.365358305E0,-3.549883214E0,7.213779055E0
5.671409042E0,3.073419046E0,-4.392120835E0,-2.854459823E0,6.073266908E0
5.681409042E0,2.904328972E0,-3.557837182E0,-2.056897269E0,5.032311453E0
5.691409042E0,2.641436109E0,-2.798731765E0,-1.412656896E0,4.099473590E0
5.701409042E0,2.324366455E0,-1.450486042E0,-7.973450375E-1,2.853480031E0
5.711404000E0,1.934313609E0,-1.938030392E-1,-3.615509585E-1,1.977333521E0
5.721404000E0,1.496846569E0,5.410995823E-1,-1.451045036E-2,1.591712588E0
5.731404000E0,9.234485753E-1,7.080112767E-1,1.995913441E-1,1.180624387E0
5.741404000E0,-1.842187218E-1,2.782479429E-1,3.801088516E-1,5.058074676E-1
5.751404000E0,-3.057810781E0,-3.029465818E-1,1.058009160E0,3.249825655E0
5.761403000E0,-5.535484214E0,-1.383155354E0,1.453907833E0,5.888000697E0
5.771403000E0,-6.691792159E0,-2.977741349E0,1.213264503E0,7.424219595E0
5.781403000E0,-7.304773318E0,-3.995515891E0,8.589417998E-1,8.370283237E0
5.791403000E0,-7.310800627E0,-3.669621327E0,3.998324601E-1,8.189859125E0
5.801403000E0,-6.823955605E0,-3.119597139E0,-6.775133693E-1,7.533742813E0
5.811402000E0,-6.834015740E0,-3.784341359E0,-1.733390708E0,8.001853160E0
5.821402000E0,-6.420877209E0,7.350944102E-2,-8.472583321E-1,6.476952559E0
5.831402000E0,-5.025311140E0,3.353572304E0,-5.306324816E-1,6.064797613E0
5.841402000E0,-2.443120774E0,5.155687092E0,2.555265400E-1,5.710975601E0
5.851402000E0,-8.733746284E-1,6.223248337E0,7.324698874E-1,6.326777635E0
5.861401000E0,-1.577075922E-1,6.681187064E0,1.010335715E0,6.758987389E0
5.871401000E0,5.358923444E-1,7.048446586E0,1.433479416E0,7.212672398E0
5.881401000E0,1.046394032E0,7.441429179E0,1.672987947E0,7.698616588E0
5.891401000E0,1.030598656E0,7.429753459E0,1.585394464E0,7.666605876E0
5.901400000E0,1.155770294E0,7.035673928E0,1.686954753E0,7.326822567E0
5.911400000E0,1.108057306E0,6.711452252E0,1.908543030E0,7.064978331E0
5.921400000E0,9.372171602E-1,6.247489139E0,1.798630432E0,6.568452480E0
5.931400000E0,6.135723120E-1,5.814354300E0,1.666344341E0,6.079464645E0
5.941400000E0,4.615327182E-1,5.303432783E0,1.605417815E0,5.560285793E0
5.951399000E0,6.149028459E-1,4.794261922E0,1.978702455E0,5.222864759E0
5.961399000E0,5.810606235E-1,4.138152870E0,2.017363075E0,4.640225684E0
5.971399000E0,4.427663720E-1,3.477433873E0,1.948566197E0,4.010673089E0
5.981399000E0,3.981831068E-1,3.069863062E0,2.029555981E0,3.701581620E0
5.991399000E0,5.479475489E-1,2.786480094E0,2.149432088E0,3.561569336E0
6.001398000E0,6.036378926E-1,2.319734876E0,2.304515158E0,3.325107323E0
6.011398000E0,7.159365928E-1,1.653407230E0,2.504265400E0,3.085071452E0
6.021398000E0,7.029546046E-1,8.082881016E-1,2.637865215E0,2.847070024E0
6.031398000E0,6.563017175E-1,-8.733401299E-2,2.613611549E0,2.696168486E0
6.041397000E0,1.120581750E0,-1.367919264E0,2.399795245E0,2.980926666E0
6.051397000E0,1.840470914E0,-2.952365018E0,1.996307544E0,4.011114084E0
6.061397000E0,2.456560891E0,-4.435397247E0,1.031768391E0,5.174165263E0
6.071397000E0,2.823610498E0,-5.467136695E0,-4.364453857E-1,6.168698766E0
6.081397000E0,2.709345087E0,-5.759975780E0,-1.505187622E0,6.540906784E0
6.091396000E0,2.349568832E0,-5.722645401E0,-2.567516778E0,6.697856858E0
6.101396000E0,2.792075880E0,-6.239765552E0,-6.782627485E0,9.629870064E0
6.111396000E0,4.459212956E0,-6.710668725E0,-1.526670819E1,1.726238783E1
6.121396000E0,4.417236088E0,-3.923756522E0,-1.033294573E1,1.190284031E1
6.131396000E0,3.741958694E0,-3.485069168E-1,-5.240790392E0,6.448999602E0
6.141395000E0,3.986548601E0,4.353626275E-1,-2.268558144E0,4.607435992E0
6.151395000E0,3.143855483E0,-1.556731705E0,-7.854469769E-1,3.595019868E0
6.161395000E0,2.141629856E0,-4.689673360E0,-7.313501456E-1,5.207157353E0
6.171395000E0,1.076317012E0,-6.872397448E0,-7.369279508E-1,6.995095982E0
6.181394000E0,-7.371002975E-1,-7.909371908E0,-7.711308002E-3,7.943647795E0
6.191394000E0,-1.915638918E0,-7.208097208E0,6.088683732E-1,7.483118235E0
6.201394000E0,-2.865498197E0,-5.247519953E0,1.448495650E0,6.151884688E0
6.211394000E0,-4.224075365E0,-3.052432512E0,2.456122935E0,5.761310337E0
6.221394000E0,-5.984127038E0,-1.218329362E0,2.266585439E0,6.513947527E0
6.231393000E0,-7.828038307E0,5.352552903E-1,-7.218107057E-1,7.879447485E0
6.241393000E0,-5.843067638E0,1.328830628E0,-1.944511446E0,6.299869445E0
6.251393000E0,-3.940428103E0,1.063856449E0,-7.378939839E-1,4.147680281E0
6.261393000E0,-4.608882674E0,-3.167243761E-1,-7.201416180E-2,4.620313828E0
6.271392000E0,-5.861850064E0,1.543153301E0,1.858957325E0,6.340215345E0
6.281392000E0,-6.726662030E0,3.179290779E0,1.954507846E0,7.692592075E0
6.291392000E0,-6.299660336E0,3.226323443E0,1.588644054E0,7.253872982E0
6.301392000E0,-5.827970127E0,2.155582482E0,1.472400237E0,6.385901197E0
6.311392000E0,-5.171188061E0,7.006244892E-1,1.456326241E0,5.417835985E0
6.321391000E0,-3.849775211E0,1.112736833E-1,1.588503721E0,4.166112706E0
6.331391000E0,-2.419478727E0,2.841922224E-1,1.660744901E0,2.948341255E0
6.341391000E0,-1.327384904E0,7.853237468E-1,1.749079957E0,2.331944417E0
6.351391000E0,-6.463003474E-1,1.315469740E0,1.984359051E0,2.466950672E0
6.361390000E0,-4.318507898E-1,1.679395764E0,2.237570386E0,2.830827877E0
6.371390000E0,-2.274571274E-1,2.013409188E0,2.392974175E0,3.135582674E0
6.381390000E0,-1.916014163E-1,2.555053146E0,2.449569376E0,3.544770487E0
6.391390000E0,-1.490902582E-1,3.318272079E0,2.378176188E0,4.085202501E0
6.401389000E0,2.222485739E-1,4.014859650E0,2.157569951E0,4.563288346E0
6.411389000E0,7.083694187E-1,4.525850750E0,1.858042821E0,4.943423446E0
6.421389000E0,9.160253888E-1,5.164525743E0,1.493901473E0,5.453729941E0
6.431389000E0,5.840523514E-1,5.662991522E0,1.083403691E0,5.795200918E0
6.441389000E0,4.008222476E-1,5.701676116E0,4.489642744E-1,5.733353114E0
6.451388000E0,4.104716152E-1,4.994796275E0,-2.806675208E-1,5.019487129E0
6.461388000E0,8.308185929E-1,3.868978636E0,-6.408243569E-1,4.008729360E0
6.471388000E0,1.303379745E0,2.956944557E0,-6.333797550E-1,3.292945457E0
6.481388000E0,1.798051265E0,2.464480945E0,-5.775271511E-1,3.104865905E0
6.491387000E0,2.271963124E0,2.262615765E0,-7.654987621E-1,3.296548936E0
6.501387000E0,2.346545529E0,2.062277877E0,-1.186382514E0,3.341671652E0
6.511387000E0,1.970750534E0,1.669860710E0,-1.614588150E0,3.046175857E0
6.521387000E0,1.465964792E0,9.414484978E-1,-1.958665216E0,2.621401814E0
6.531386000E0,1.073792038E0,1.936492574E-1,-2.099240466E0,2.365869800E0
6.541386000E0,1.178705997E0,-4.081607956E-1,-1.980037374E0,2.340190391E0
6.551386000E0,1.609198186E0,-8.605791664E-1,-1.823873447E0,2.580044506E0
6.561386000E0,1.938368946E0,-1.249565772E0,-1.740826612E0,2.889492357E0
6.571386000E0,2.039157402E0,-1.733152142E0,-1.883454820E0,3.272519108E0
6.581385000E0,1.894442615E0,-2.358872044E0,-2.058045078E0,3.659062679E0
6.591385000E0,1.865025273E0,-2.976695282E0,-2.224863217E0,4.158010390E0
6.601385000E0,1.848870293E0,-3.450256600E0,-2.266974864E0,4.523468470E0
6.611385000E0,1.699332139E0,-3.706064098E0,-2.161463027E0,4.614603259E0
6.621384000E0,1.557212346E0,-3.823109568E0,-2.028112596E0,4.599382324E0
6.631384000E0,1.612712363E0,-4.068510777E0,-1.751204250E0,4.713845292E0
6.641384000E0,2.237682652E0,-4.660695729E0,-1.837444249E0,5.486848795E0
6.651384000E0,2.821758977E0,-5.487158731E0,-1.937806590E0,6.467327813E0
6.661383000E0,3.104607802E0,-6.374875994E0,-2.079680945E0,7.389364410E0
6.671383000E0,3.093577907E0,-6.611413409E0,-2.337031524E0,7.664380463E0
6.681383000E0,2.926252230E0,-6.017771332E0,-2.324663494E0,7.083825539E0
6.691383000E0,2.867427194E0,-5.313732653E0,-1.948151922E0,6.344540120E0
6.701382000E0,2.944591729E0,-4.757715070E0,-1.319128928E0,5.748614986E0
6.711386250E0,2.991682280E0,-3.721315391E0,-9.369326931E-1,4.865818942E0
6.721386250E0,2.784984669E0,-1.972059433E0,-7.827281678E-1,3.501117164E0
6.731386250E0,2.370355391E0,-3.022174340E-1,-6.725461596E-1,2.482385625E0
6.741385250E0,1.919836634E0,7.464643210E-1,-5.048983008E-1,2.120826249E0
6.751385250E0,1.463349040E0,9.013547248E-1,-4.465039122E-1,1.775724217E0
6.761385250E0,8.066605291E-1,4.157510662E-1,-3.627834785E-1,9.773239025E-1
6.771385250E0,-6.015982376E-1,-1.174910277E-1,-1.568644055E-1,6.327171744E-1
6.781384250E0,-3.363267865E0,-6.870104170E-1,3.121056604E-1,3.446877426E0
6.791384250E0,-5.093389102E0,-1.657998464E0,4.642536835E-1,5.376532613E0
6.801384250E0,-5.956687809E0,-2.433629866E0,4.477739275E-1,6.450208172E0
6.811384250E0,-6.380225612E0,-2.715025365E0,9.891858973E-2,6.934581925E0
6.821383250E0,-7.067054181E0,-2.185599748E0,-3.275177515E-1,7.404550555E0
6.831383250E0,-7.812108153E0,-3.451022000E0,-1.761221116E0,8.720119636E0
6.841383250E0,-8.039411645E0,-2.101432588E0,-1.793408868E0,8.500851362E0
6.851383250E0,-6.456199654E0,1.087348223E0,-1.537079652E0,6.725135983E0
6.861383250E0,-3.577551069E0,3.338016372E0,-1.079634576E0,5.010672187E0
6.871382250E0,-1.799952780E0,5.121617121E0,-7.425148192E-1,5.479244491E0
6.881382250E0,-9.732041413E-1,5.705356938E0,-2.988240024E-1,5.795474086E0
6.891382250E0,-1.173778841E-1,5.818896418E0,5.379802389E-1,5.844891430E0
6.901382250E0,4.939219075E-1,6.147469007E0,7.291700113E-1,6.210235337E0
6.911381250E0,8.956914040E-1,6.638847960E0,7.347250123E-1,6.739168062E0
6.921381250E0,1.133455565E0,6.948350440E0,8.198348907E-1,7.087765840E0
6.931381250E0,1.161174583E0,6.625104665E0,6.327684286E-1,6.755792634E0
6.941381250E0,1.117609026E0,6.355677831E0,7.896034701E-1,6.501320194E0
6.951380250E0,1.135742703E0,5.993329386E0,1.175163754E0,6.212158921E0
6.961380250E0,1.206213638E0,5.641098962E0,1.458022811E0,5.950023475E0
6.971380250E0,9.281840891E-1,5.029132880E0,1.457353890E0,5.317667119E0
6.981379250E0,3.352565414E-1,3.999707175E0,1.194349930E0,4.187663572E0
6.991379250E0,-2.846716940E-2,3.421580685E0,1.477338503E0,3.727003329E0
7.001379250E0,-1.534829789E-1,2.904053568E0,1.821960822E0,3.431708814E0
7.011379250E0,-2.155649140E-1,2.502966734E0,1.867582261E0,3.130363270E0
7.021379250E0,-6.026871353E-2,2.217833694E0,1.972381322E0,2.968620335E0
7.031378250E0,1.000458598E-2,2.009872792E0,2.223591155E0,2.997339880E0
7.041378250E0,1.215077725E-1,1.675474037E0,2.351969698E0,2.890283524E0
7.051378250E0,3.353293392E-1,1.155815025E0,2.293534379E0,2.590106964E0
7.061378250E0,4.959848052E-1,5.161699784E-1,2.274141212E0,2.384145680E0
7.071377250E0,6.223919597E-1,-2.009483367E-1,2.367991362E0,2.456651191E0
7.081377250E0,7.550937881E-1,-1.113381781E0,2.388686704E0,2.741461251E0
7.091377250E0,9.982559520E-1,-2.164248056E0,2.207760111E0,3.248798132E0
7.101377250E0,1.418486862E0,-3.416525767E0,2.097887421E0,4.252750278E0
7.111376250E0,2.066197266E0,-4.761979444E0,1.631625182E0,5.441306838E0
7.121376250E0,2.612891757E0,-5.512830346E0,6.623597252E-1,6.136548066E0
7.131376250E0,2.851903713E0,-5.500258248E0,-9.465940475E-2,6.196382492E0
7.141375250E0,2.603694963E0,-5.187313512E0,-4.395293534E-1,5.820707430E0
7.151375250E0,2.739717279E0,-4.926296144E0,-3.796795928E-1,5.649654951E0
7.161375250E0,2.241282783E0,-5.076205890E0,-6.876512718E-1,5.591429068E0
7.171375250E0,2.583344022E0,-5.903348338E0,-1.640439860E0,6.649378232E0
7.181374250E0,2.860676583E0,-6.212562550E0,-3.417985232E0,7.646046495E0
7.191374250E0,3.398523944E0,-5.839056448E0,-4.691569612E0,8.225288483E0
7.201374250E0,3.218127401E0,-5.193347254E0,-4.570252751E0,7.629836818E0
7.211374250E0,2.020087585E0,-5.389301484E0,-3.181151948E0,6.576097022E0
7.221373250E0,1.040886832E0,-4.826260225E0,-1.961343241E0,5.312541808E0
7.231373250E0,8.302391338E-1,-3.428761650E0,-1.511639732E0,3.838066981E0
7.241373250E0,5.839424238E-1,-2.387324595E0,-1.422066382E0,2.839468308E0
7.251373250E0,-4.716283746E-1,-1.384147042E0,-1.262530511E0,1.931910880E0
7.261372250E0,-1.307142866E0,-5.147777563E-1,-7.187793629E-1,1.578056521E0
7.271372250E0,-1.739771921E0,-1.256566644E-2,-5.061149602E-1,1.811937246E0
7.281372250E0,-2.427586184E0,-4.097430521E-1,-3.337426972E-1,2.484441232E0
7.291372250E0,-4.071102848E0,-1.256696452E0,9.043960078E-1,4.355582224E0
7.301371250E0,-5.462798061E0,-1.668588941E0,1.650743823E0,5.945696500E0
7.311371250E0,-5.760786788E0,-2.032203893E0,1.613598801E0,6.318244865E0
7.321371250E0,-5.804976536E0,-2.321162181E0,1.314369879E0,6.388514274E0
7.331371250E0,-6.853218580E0,-1.938830876E0,1.006991181E0,7.193031441E0
7.341370250E0,-7.623833656E0,-9.068312269E-1,7.556100241E-1,7.714669727E0
7.351370250E0,-7.067285146E0,7.460824978E-1,7.650321543E-1,7.147617269E0
7.361370250E0,-4.294610327E0,2.415117581E0,1.403318893E0,5.123063020E0
7.371370250E0,-1.910698167E0,3.397515299E0,2.181893198E0,4.467049991E0
7.381369250E0,-1.094522464E0,4.088981295E0,2.142015188E0,4.744046429E0
7.391369250E0,-5.954646546E-1,4.295894376E0,1.930770489E0,4.747332022E0
7.401369250E0,-4.059444085E-1,3.917018191E0,2.002257378E0,4.417788698E0
7.411368250E0,-4.459542739E-1,3.454789946E0,2.278840180E0,4.162638749E0
7.421368250E0,-2.835934675E-1,3.241607480E0,2.474319470E0,4.087872448E0
7.431368250E0,2.422948757E-1,3.337421710E0,2.394891185E0,4.114923361E0
7.441368250E0,7.971216738E-1,3.712117136E0,2.186041213E0,4.381094930E0
7.451367250E0,1.128068233E0,4.332076946E0,1.943135011E0,4.880082200E0
7.461367250E0,1.369143087E0,4.943998590E0,1.768380446E0,5.426310372E0
7.471367250E0,1.508930132E0,5.334305497E0,1.520709933E0,5.748412301E0
7.481367250E0,1.433906555E0,5.534070357E0,1.252300661E0,5.852373849E0
7.491366250E0,1.448427823E0,5.548172087E0,9.656290734E-1,5.814859944E0
7.501366250E0,1.613956650E0,5.282223762E0,6.518874351E-1,5.561627565E0
7.511366250E0,1.687925098E0,4.792238785E0,4.553903644E-1,5.101178696E0
7.521366250E0,1.751108648E0,4.247919726E0,3.614749447E-1,4.608890065E0
7.531365250E0,1.820883180E0,3.591818275E0,1.240301152E-1,4.028915183E0
7.541365250E0,1.674527957E0,2.609682512E0,-1.970135991E-1,3.106976191E0
7.551365250E0,1.401538708E0,1.737885463E0,-5.409808107E-1,2.297219378E0
7.561364250E0,1.127319497E0,1.139251032E0,-8.713029599E-1,1.824256290E0
7.571364250E0,9.262942690E-1,6.204673487E-1,-1.130119436E0,1.587504565E0
7.581364250E0,1.233414593E0,6.398958921E-2,-1.232277310E0,1.744681517E0
7.591364250E0,1.830545704E0,-5.170716190E-1,-1.318965790E0,2.314720586E0
7.601363250E0,1.628956220E0,-1.173164883E0,-1.482445754E0,2.495487853E0
7.611363250E0,1.500320400E0,-2.168797774E0,-1.614548973E0,3.092153534E0
7.621363250E0,1.507203157E0,-3.100405993E0,-1.607672063E0,3.803786027E0
7.631363250E0,1.587157399E0,-4.012552924E0,-1.510293703E0,4.571721409E0
7.641362250E0,1.461872910E0,-4.670082849E0,-1.542021280E0,5.130748079E0
7.651362250E0,1.381933871E0,-5.066713520E0,-1.738986493E0,5.532214849E0
7.661362250E0,1.413077603E0,-5.348370389E0,-1.901926759E0,5.849716192E0
7.671361250E0,1.801709576E0,-5.986336700E0,-2.011573747E0,6.567253111E0
7.681361250E0,2.153074611E0,-7.235536437E0,-2.510191553E0,7.955487380E0
7.691361250E0,2.442421739E0,-8.255315990E0,-3.318208344E0,9.226384593E0
7.701361250E0,2.383948413E0,-8.043979490E0,-3.760439696E0,9.194004719E0
7.711360542E0,2.369749912E0,-7.348235672E0,-3.711547617E0,8.566671923E0
7.721360542E0,2.416345642E0,-6.298007328E0,-3.127537073E0,7.435395801E0
7.731360542E0,2.530903561E0,-5.082214488E0,-2.236772241E0,6.102255894E0
7.741360542E0,2.781171407E0,-3.486287727E0,-1.515024101E0,4.710033390E0
7.751359542E0,2.537821109E0,-1.895873721E0,-1.256304104E0,3.407810609E0
7.761359542E0,2.198004616E0,-7.834134614E-1,-9.523640800E-1,2.520309165E0
7.771359542E0,1.719339703E0,-3.028992194E-1,-5.408276868E-1,1.827668333E0
7.781358542E0,1.237164413E0,-2.294593602E-1,-3.237615001E-1,1.299249357E0
7.791358542E0,5.900808308E-1,-3.616520423E-1,-1.862221241E-1,7.167051458E-1
7.801358542E0,-2.960839972E-1,-6.404256499E-1,-7.386433046E-2,7.094129162E-1
7.811358542E0,-2.438096408E0,-9.285056859E-1,3.298964353E-1,2.629689822E0
7.821357542E0,-5.621979736E0,-1.045559927E0,1.075563671E0,5.818650095E0
7.831357542E0,-6.598829032E0,-1.287437603E0,1.152845224E0,6.821370264E0
7.841357542E0,-7.044314944E0,-1.214176084E0,8.224646759E-1,7.195348826E0
7.851357542E0,-7.596383318E0,-1.157745776E0,1.597261973E-1,7.685761332E0
7.861356542E0,-7.910986909E0,-2.731431482E0,-1.288488787E0,8.467858948E0
7.871356542E0,-7.472420007E0,-7.097391289E-1,-1.401840570E0,7.635833116E0
7.881356542E0,-5.601298134E0,2.172535315E0,-1.539496891E0,6.201975585E0
7.891355542E0,-3.655167887E0,4.068723616E0,-8.355437279E-1,5.532892324E0
7.901355542E0,-1.994124486E0,5.888765382E0,-3.205113253E-1,6.225497386E0
7.911355542E0,-9.327042791E-1,6.496721444E0,5.067021668E-1,6.582862134E0
7.921355542E0,-5.562511799E-1,6.583368993E0,1.149002580E0,6.705995050E0
7.931354542E0,3.051047891E-2,6.857098793E0,1.207078442E0,6.962598158E0
7.941354542E0,4.459574899E-1,7.041630487E0,1.103932096E0,7.141575741E0
7.951354542E0,1.023675260E0,6.947563405E0,1.236198745E0,7.130549463E0
7.961353542E0,1.028308009E0,6.711839338E0,1.145988925E0,6.886181473E0
7.971353542E0,9.761528921E-1,6.400819505E0,1.295388940E0,6.603135415E0
7.981353542E0,7.737079605E-1,5.782146083E0,1.399834098E0,5.999281026E0
7.991353542E0,4.729619783E-1,5.165277695E0,1.250515945E0,5.335501554E0
8.001352542E0,2.777901059E-1,4.748218022E0,1.257346662E0,4.919721776E0
8.011352542E0,4.849563718E-2,4.395086542E0,1.327084649E0,4.591327826E0
8.021352542E0,-2.711573169E-1,3.863831917E0,1.256473965E0,4.072032686E0
8.031351542E0,-3.501991010E-1,3.508627599E0,1.351387724E0,3.776156223E0
8.041351542E0,-3.242500350E-1,3.250850174E0,1.603154212E0,3.639130166E0
8.051351542E0,-1.415005723E-1,3.132817694E0,1.852645548E0,3.642370745E0
8.061351542E0,3.765665352E-2,2.840162212E0,1.955671442E0,3.448563498E0
8.071350542E0,1.664787081E-1,2.302548739E0,1.927417111E0,3.007387999E0
8.081350542E0,2.738338798E-1,1.601462320E0,1.918309780E0,2.513877278E0
8.091350542E0,2.865334475E-1,8.469118845E-1,1.944357956E0,2.140067527E0
8.101349542E0,4.272069311E-1,-1.648341787E-1,1.898626006E0,1.953063434E0
8.111349542E0,6.861342117E-1,-1.241567951E0,1.900319652E0,2.371389026E0
8.121349542E0,1.212402039E0,-2.609708240E0,1.632429174E0,3.308371323E0
8.131348542E0,2.299016729E0,-4.026907838E0,1.049435169E0,4.754237986E0
8.141348542E0,3.376038769E0,-5.431093873E0,1.798849118E-1,6.397403927E0
8.151348542E0,3.218409529E0,-5.948539129E0,-6.168084535E-1,6.791445379E0
8.161348542E0,2.184672672E0,-6.008590034E0,-8.206625640E-1,6.445885193E0
8.171347542E0,1.310993404E0,-5.849172131E0,-2.362671272E-1,5.998944947E0
8.181347542E0,1.201033298E0,-5.921642522E0,1.395383929E-1,6.043823467E0
8.191347542E0,1.329762966E0,-6.259796358E0,7.093988210E-2,6.399871285E0
8.201346542E0,1.439886502E0,-6.690343804E0,-2.962550282E-1,6.849944554E0
8.211346542E0,1.647430206E0,-6.994156943E0,-4.866779383E-1,7.202021455E0
8.221346542E0,1.842331645E0,-6.886750608E0,-6.016515934E-1,7.154264775E0
8.231346542E0,1.853501434E0,-6.811644292E0,-9.661332496E-1,7.125123086E0
8.241345542E0,1.789821455E0,-6.927131479E0,-1.410727169E0,7.292377014E0
8.251345542E0,1.434582639E0,-6.464360029E0,-1.598619404E0,6.811869195E0
8.261345542E0,1.316458212E0,-4.642404469E0,-1.637858899E0,5.095837836E0
8.271344542E0,1.041311778E0,-2.797206811E0,-1.778624768E0,3.474507480E0
8.281344542E0,4.246788874E-2,-1.091314974E0,-1.890404820E0,2.183209170E0
8.291344542E0,-8.919094250E-1,9.664038295E-1,-2.472033209E0,2.800069101E0
8.301344542E0,-1.165699451E0,2.016925119E0,-3.301999862E0,4.041045067E0
8.311343542E0,-1.789060148E0,1.947465459E0,-2.721221659E0,3.794523059E0
8.321343542E0,-2.194955001E0,1.083277976E0,-1.018099648E0,2.651008397E0
8.331343542E0,-2.600511739E0,1.024315238E-1,1.368903351E-1,2.606125954E0
8.341342542E0,-3.318803006E0,-6.987715065E-1,5.680599242E-1,3.438811871E0
8.351342542E0,-4.461491032E0,-1.300681547E0,8.271114582E-1,4.720252967E0
8.361342542E0,-5.958676447E0,-1.780568383E0,3.369896561E-1,6.228146658E0
8.371341542E0,-7.778190794E0,-1.817221069E0,2.804184294E-1,7.992570234E0
8.381341542E0,-8.550433735E0,-7.160909593E-1,3.958851510E-1,8.589495233E0
8.391341542E0,-6.865082581E0,7.519513482E-1,9.095764947E-1,6.965782015E0
8.401340542E0,-4.331974620E0,2.132155613E0,1.334557976E0,5.009305007E0
8.411340542E0,-2.418608369E0,3.524127399E0,1.276470566E0,4.460775434E0
8.421340542E0,-2.465507716E0,4.867398895E0,1.476837105E0,5.652552356E0
8.431340542E0,-2.755641586E0,5.611778684E0,1.401072392E0,6.406920040E0
8.441339542E0,-2.661751091E0,5.826774956E0,1.277623637E0,6.532116610E0
8.451339542E0,-2.124374430E0,5.689446080E0,1.002339063E0,6.155277980E0
8.461339542E0,-1.509492050E0,5.295911509E0,7.069108307E-1,5.552023765E0
8.471338542E0,-9.732605669E-1,5.081357871E0,5.515620418E-1,5.203042824E0
8.481338542E0,-4.257275856E-1,5.089265061E0,4.072912781E-1,5.123255705E0
8.491338542E0,1.665287018E-2,5.052832230E0,1.562352268E-1,5.055274504E0
8.501337542E0,4.355962238E-1,5.016040379E0,-1.891983569E-1,5.038472107E0
8.511337542E0,1.090502796E0,4.724851379E0,-1.392175086E-1,4.851061576E0
8.521337542E0,1.591332896E0,4.252593990E0,8.165285826E-2,4.541317344E0
8.531337542E0,2.026926196E0,3.788748990E0,3.251928985E-1,4.309152949E0
8.541336542E0,2.683395144E0,3.437596208E0,4.749740052E-1,4.386716026E0
8.551336542E0,3.117262346E0,3.087038673E0,4.839366174E-1,4.413765621E0
8.561336542E0,3.211524433E0,2.562305447E0,3.451640636E-1,4.122916033E0
8.571335542E0,2.909895521E0,1.838253504E0,1.453272825E-1,3.444965589E0
8.581335542E0,2.388139405E0,9.416589975E-1,-1.583583874E-1,2.571965953E0
8.591335542E0,1.901670066E0,-1.995362341E-2,-4.907451518E-1,1.964071789E0
8.601334542E0,1.814683962E0,-7.993453699E-1,-5.689878774E-1,2.062953734E0
8.611334542E0,2.206643878E0,-1.323068781E0,-4.789419258E-1,2.617092580E0
8.621334542E0,2.705971536E0,-1.864361322E0,-4.105512104E-1,3.311597407E0
8.631333542E0,2.884645197E0,-2.391039332E0,-6.062124947E-1,3.795489506E0
8.641333542E0,2.985484232E0,-3.049204264E0,-9.346440929E-1,4.368560670E0
8.651333542E0,2.969507884E0,-3.661066266E0,-1.353836246E0,4.904513825E0
8.661332542E0,2.764879310E0,-4.093741513E0,-1.909139299E0,5.296044754E0
8.671332542E0,2.316130944E0,-4.205839069E0,-2.469669179E0,5.399334281E0
8.681332542E0,1.778694058E0,-4.363503392E0,-2.756200288E0,5.458988407E0
8.691332542E0,1.642485800E0,-4.729978802E0,-2.893218677E0,5.782834373E0
8.701331542E0,2.114033922E0,-5.180970452E0,-2.921118667E0,6.312252254E0
8.711327125E0,2.738932583E0,-5.633240889E0,-2.989459169E0,6.940606654E0
8.721327125E0,2.996848003E0,-5.946824141E0,-3.098558857E0,7.344854138E0
8.731326125E0,2.633864550E0,-5.814758343E0,-2.839161753E0,6.986379357E0
8.741326125E0,2.377087729E0,-5.926964657E0,-2.186982176E0,6.749988678E0
8.751326125E0,2.293504120E0,-5.850555582E0,-9.429348600E-1,6.354391231E0
8.761325125E0,2.319957508E0,-5.120061176E0,-6.933265793E-1,5.663738256E0
8.771325125E0,2.425453265E0,-3.728974659E0,-5.952810520E-1,4.488032429E0
8.781325125E0,2.405002336E0,-2.223774465E0,-3.630045763E-1,3.295600314E0
8.791324125E0,2.144015082E0,-8.687021184E-1,-3.273921094E-1,2.336371040E0
8.801324125E0,1.605496607E0,-3.599253595E-2,-2.120487640E-1,1.619839342E0
8.811324125E0,9.340827602E-1,1.034267199E-1,-2.206949687E-1,9.653569073E-1
8.821323125E0,-1.774834603E-2,-9.042894423E-2,-1.650060868E-1,1.889957842E-1
8.831323125E0,-2.049358747E0,-3.769021654E-1,4.328459859E-2,2.084178512E0
8.841323125E0,-4.581996007E0,-1.012546547E0,4.091185329E-1,4.710341377E0
8.851322125E0,-7.042884715E0,-1.654871373E0,8.562241602E-1,7.285186626E0
8.861322125E0,-8.511359131E0,-2.033300246E0,6.448315269E-1,8.774585566E0
8.871322125E0,-8.691411858E0,-1.928787698E0,-2.499848413E-1,8.906365953E0
8.881321125E0,-8.338915386E0,-1.798514072E0,-1.536728965E0,8.667969693E0
8.891321125E0,-8.577326249E0,-1.658976118E0,-2.969618397E0,9.227207636E0
8.901321125E0,-8.619357204E0,1.688297566E0,-1.669135655E0,8.940340101E0
8.911320125E0,-7.037831551E0,3.687024395E0,-1.290410328E0,8.049247210E0
8.921320125E0,-3.830569154E0,4.656939477E0,-6.789051528E-1,6.068052203E0
8.931320125E0,-1.959891377E0,5.486234286E0,-2.266733082E-1,5.830207684E0
8.941319125E0,-6.880763644E-1,5.623412304E0,-1.434615822E-1,5.667168274E0
8.951319125E0,2.126094389E-1,5.698673571E0,-1.904321194E-2,5.702670066E0
8.961319125E0,7.756103522E-1,6.002149910E0,9.865656137E-2,6.052859496E0
8.971318125E0,1.121661438E0,6.414867441E0,4.335033591E-1,6.526605077E0
8.981318125E0,1.347163695E0,6.391976177E0,8.747972560E-1,6.590711623E0
8.991318125E0,1.765860589E0,6.157913888E0,1.120121720E0,6.503294530E0
9.001317125E0,2.292520472E0,5.995563022E0,1.096969378E0,6.511971121E0
9.011317125E0,2.439917084E0,4.911399778E0,8.533568318E-1,5.550068561E0
9.021317125E0,2.000601739E0,3.734034255E0,3.519532657E-1,4.250798776E0
9.031316125E0,1.676587054E0,3.951674638E0,7.488787825E-1,4.357464403E0
9.041316125E0,1.380615031E0,3.915243561E0,1.268567469E0,4.341024468E0
9.051316125E0,1.231090617E0,3.657397723E0,1.499785087E0,4.140229162E0
9.061315125E0,1.017556441E0,3.457027676E0,1.674404874E0,3.973675017E0
9.071315125E0,9.299625197E-1,3.143797596E0,1.819133255E0,3.749338530E0
9.081315125E0,9.132193100E-1,2.850236380E0,1.854080747E0,3.520714749E0
9.091314125E0,9.171863535E-1,2.633550262E0,1.856493309E0,3.350132116E0
9.101314125E0,8.683822757E-1,2.237708965E0,1.856457056E0,3.034445911E0
9.111314125E0,8.531327373E-1,1.596320863E0,1.945703108E0,2.657411589E0
9.121313125E0,8.221840096E-1,8.078852284E-1,1.993545465E0,2.302800167E0
9.131313125E0,7.526813731E-1,-1.155281174E-1,1.939818909E0,2.083932195E0
9.141313125E0,8.039588231E-1,-1.252153165E0,1.765149714E0,2.308677294E0
9.151312125E0,9.516556898E-1,-2.555416258E0,1.678212873E0,3.201905565E0
9.161312125E0,1.607437590E0,-4.247198764E0,1.283911732E0,4.719214160E0
9.171312125E0,2.200323622E0,-5.710493717E0,1.774612409E-1,6.122307982E0
9.181311125E0,2.241426332E0,-6.193557345E0,-6.516778855E-1,6.618823812E0
9.191311125E0,1.872848555E0,-5.901167911E0,-5.161942443E-1,6.212712848E0
9.201311125E0,1.452770550E0,-5.588612015E0,1.674611865E-1,5.776778495E0
9.211310125E0,1.540076204E0,-5.290009915E0,3.176580302E-1,5.518781227E0
9.221310125E0,1.929151103E0,-5.264068158E0,-1.191112912E-1,5.607693380E0
9.231310125E0,2.263072725E0,-5.567295406E0,-4.965375133E-1,6.030159682E0
9.241309125E0,2.550744333E0,-5.754753631E0,-1.011146285E0,6.375413933E0
9.251309125E0,2.612865152E0,-5.596238539E0,-1.550040736E0,6.367697886E0
9.261309125E0,2.694356627E0,-5.725077842E0,-2.016374896E0,6.640921747E0
9.271308125E0,2.514650640E0,-6.047279890E0,-2.210149137E0,6.912150253E0
9.281308125E0,1.479509136E0,-6.174567928E0,-2.010513647E0,6.660060172E0
9.291308125E0,7.910011008E-1,-4.607997698E0,-1.841491692E0,5.024979321E0
9.301307125E0,5.993284947E-1,-2.972940785E0,-1.521882885E0,3.393184208E0
9.311307125E0,-2.939325142E-1,-1.776113389E0,-1.135945675E0,2.128696237E0
9.321307125E0,-1.241181011E0,-1.997993588E-1,-1.724600004E0,2.134173203E0
9.331306125E0,-1.519923775E0,1.212660486E0,-2.142261794E0,2.893095113E0
9.341306125E0,-2.299450884E0,1.400092399E0,-1.275073081E0,2.978849519E0
9.351305125E0,-3.116030338E0,8.833605033E-1,-6.216362071E-1,3.297939117E0
9.361305125E0,-3.823297264E0,1.529742712E-1,-3.188088719E-1,3.839614850E0
9.371305125E0,-4.892260964E0,-4.657535309E-1,3.050211374E-1,4.923838095E0
9.381304125E0,-6.065288730E0,-1.111636387E0,6.529515553E-1,6.200790963E0
9.391304125E0,-6.787527452E0,-1.491225933E0,5.525525236E-1,6.971341189E0
9.401304125E0,-7.469414538E0,-1.226110252E0,6.495625091E-1,7.597198914E0
9.411303125E0,-7.225672184E0,-5.439957082E-2,6.549232364E-1,7.255496005E0
9.421303125E0,-5.969620095E0,1.622767235E0,1.014073255E0,6.268818242E0
9.431303125E0,-4.140242665E0,2.921870034E0,1.338124777E0,5.241136493E0
9.441302125E0,-2.272476509E0,3.285659233E0,1.628402781E0,4.314093381E0
9.451302125E0,-1.391390573E0,3.494004298E0,1.558254905E0,4.070895738E0
9.461301125E0,-9.328861275E-1,3.423219075E0,1.608404135E0,3.895596131E0
9.471301125E0,-7.090950581E-1,3.202229406E0,1.745624253E0,3.715412898E0
9.481301125E0,-7.045275056E-1,3.022130486E0,1.975009499E0,3.678354823E0
9.491300125E0,-5.965887818E-1,3.061224970E0,2.078473495E0,3.747941910E0
9.501300125E0,-1.137762916E-1,3.457901250E0,2.086354373E0,4.040160970E0
9.511300125E0,5.680096382E-1,4.024340326E0,1.889029555E0,4.481783425E0
9.521299125E0,1.075318161E0,4.548724473E0,1.634862785E0,4.951765322E0
9.531299125E0,1.389362174E0,4.974064972E0,1.437691165E0,5.360839998E0
9.541298125E0,1.546845818E0,5.244568278E0,1.319038296E0,5.624774701E0
9.551298125E0,1.623160753E0,5.402141969E0,1.180179788E0,5.762865001E0
9.561298125E0,1.702653649E0,5.475963652E0,8.036074054E-1,5.790595153E0
9.571297125E0,1.759143892E0,5.065666868E0,5.258822767E-1,5.388146269E0
9.581297125E0,1.897977257E0,4.397111433E0,4.886307621E-1,4.814111200E0
9.591297125E0,1.974751199E0,3.662529824E0,5.670232129E-1,4.199438335E0
9.601296125E0,2.090158571E0,2.837960150E0,5.610485280E-1,3.568971297E0
9.611296125E0,2.111224042E0,1.974887146E0,3.116940165E-1,2.907679377E0
9.621295125E0,1.994394920E0,1.210717456E0,5.026971895E-2,2.333661265E0
9.631295125E0,1.772905022E0,4.382803881E-1,-1.351338315E-1,1.831268158E0
9.641295125E0,1.396650143E0,-2.100015807E-1,-2.796337696E-1,1.439766416E0
9.651294125E0,1.195209763E0,-7.963831705E-1,-2.935793424E-1,1.465926793E0
9.661294125E0,1.378285501E0,-1.474760758E0,-3.793112183E-1,2.053890751E0
9.671294125E0,1.588493488E0,-2.150393078E0,-6.427633667E-1,2.749663015E0
9.681293125E0,1.714581092E0,-2.847133847E0,-9.786134005E-1,3.464627491E0
9.691293125E0,1.896035397E0,-3.518314097E0,-1.127220386E0,4.152602811E0
9.701292125E0,2.012987311E0,-4.090580508E0,-1.149918108E0,4.701837775E0
9.711296625E0,1.952541719E0,-4.679522009E0,-9.819024593E-1,5.164734053E0
9.721296625E0,1.792640837E0,-5.214366240E0,-1.017659937E0,5.607032031E0
9.731295625E0,1.781694264E0,-5.504792764E0,-1.187811574E0,5.906612748E0
9.741295625E0,2.074272563E0,-5.564665913E0,-1.368837277E0,6.094409642E0
9.751294625E0,2.449699768E0,-5.704383962E0,-1.635508903E0,6.419962204E0
9.761294625E0,2.820495394E0,-6.143307543E0,-2.213177556E0,7.112916191E0
9.771294625E0,2.883002422E0,-6.571430733E0,-2.930992860E0,7.751523978E0
9.781293625E0,2.648982233E0,-6.223680446E0,-3.342039841E0,7.544569932E0
9.791293625E0,2.623069128E0,-6.225134064E0,-2.967032173E0,7.378080081E0
9.801292625E0,2.640150891E0,-6.066708434E0,-2.422120791E0,7.045709125E0
9.811292625E0,2.643216002E0,-4.784978297E0,-1.581940221E0,5.690794584E0
9.821292625E0,2.646060964E0,-2.873593667E0,-1.115537649E0,4.062462731E0
9.831291625E0,2.575388300E0,-8.897526795E-1,-1.055649297E0,2.922102012E0
9.841291625E0,2.410781140E0,4.804820824E-1,-8.735564768E-1,2.608798507E0
9.851291625E0,2.059623826E0,1.082761667E0,-5.150157380E-1,2.383204637E0
9.861290625E0,1.504207336E0,9.507256901E-1,-2.187642181E-1,1.792868325E0
9.871290625E0,6.806944008E-1,3.389449650E-1,-1.997537140E-1,7.862125049E-1
9.881289625E0,-3.349998486E-1,-5.753695285E-1,-8.913144708E-2,6.717286713E-1
9.891289625E0,-2.960382720E0,-1.343044624E0,2.701484529E-1,3.261995539E0
9.901289625E0,-7.381208121E0,-1.623510416E0,9.036449330E-1,7.611477751E0
9.911288625E0,-8.016808648E0,-1.942113503E0,7.091644938E-1,8.279126768E0
9.921288625E0,-7.461267613E0,-2.100683559E0,6.624208286E-2,7.751630397E0
9.931287625E0,-7.834034042E0,-3.773427531E0,-1.392231402E0,8.806199690E0
9.941287625E0,-8.292163389E0,-1.805067047E0,-1.755905850E0,8.666109050E0
9.951287625E0,-7.313635358E0,2.108901821E0,-2.205967209E0,7.924835668E0
9.961286625E0,-4.465056079E0,4.018427036E0,-1.962399102E0,6.319453447E0
9.971286625E0,-2.050627008E0,4.804087583E0,-1.005149235E0,5.319271906E0
9.981285625E0,-7.268249854E-1,5.615867642E0,-1.096221372E-2,5.662717024E0
9.991285625E0,-1.769697824E-1,5.878243902E0,5.885810199E-1,5.910287412E0
1.000128462E1,3.356389493E-1,5.942524098E0,5.323575564E-1,5.975755243E0
1.001128462E1,8.847112101E-1,6.102150162E0,3.101668699E-1,6.173747161E0
1.002128462E1,1.165938602E0,6.308163942E0,2.172356097E-1,6.418686505E0
1.003128362E1,1.218460924E0,6.214514351E0,5.845635442E-1,6.359760230E0
1.004128362E1,1.048713622E0,5.971493543E0,9.754792929E-1,6.140854603E0
1.005128262E1,9.612553561E-1,5.791595768E0,1.212083658E0,5.994642624E0
1.006128262E1,7.803217462E-1,5.346925542E0,1.256717210E0,5.547779099E0
1.007128262E1,8.416189849E-2,4.413467265E0,1.166994317E0,4.565922936E0
1.008128162E1,-1.520477799E-1,3.564441027E0,1.135770477E0,3.744106427E0
1.009128162E1,-3.525113824E-1,3.050208816E0,1.193478841E0,3.294302633E0
1.010128062E1,-5.195762739E-1,2.853363470E0,1.537278749E0,3.282509490E0
1.011128062E1,-3.937175882E-1,2.832861378E0,1.852373945E0,3.407551373E0
1.012128062E1,-1.921509084E-1,2.965534117E0,2.074533349E0,3.624224494E0
1.013127962E1,6.099990785E-2,2.896348107E0,2.098821221E0,3.577373878E0
1.014127963E1,3.092109963E-1,2.372780816E0,2.057189630E0,3.155587016E0
1.015127863E1,4.113501593E-1,1.712043108E0,2.325569812E0,2.916946264E0
1.016127863E1,5.699294253E-1,9.863165224E-1,2.337750732E0,2.600522700E0
1.017127763E1,7.472852701E-1,1.922102576E-1,2.135727969E0,2.270839936E0
1.018127763E1,7.643224485E-1,-8.496600759E-1,1.947649062E0,2.258195722E0
1.019127763E1,7.335101071E-1,-2.007467247E0,1.776896331E0,2.779446419E0
1.020127663E1,9.061261989E-1,-3.082552689E0,1.637706871E0,3.606283345E0
1.021127663E1,1.577108375E0,-4.215380555E0,1.307816612E0,4.686906052E0
1.022127563E1,2.099514408E0,-4.885552161E0,6.523177171E-1,5.357434001E0
1.023127563E1,2.331037690E0,-4.982422398E0,3.384172538E-1,5.511151957E0
1.024127563E1,2.362646714E0,-4.929377627E0,1.579025969E-1,5.468619251E0
1.025127463E1,2.077684413E0,-4.957116233E0,9.455152363E-2,5.375752400E0
1.026127463E1,2.208607080E0,-5.039705815E0,-2.917517951E-1,5.510145102E0
1.027127363E1,2.422601871E0,-5.541909719E0,-6.113122170E-1,6.079100738E0
1.028127363E1,2.777139167E0,-6.086521724E0,-1.702617689E0,6.903416230E0
1.029127263E1,3.201292098E0,-5.760163475E0,-3.350224189E0,7.392682630E0
1.030127263E1,3.256687157E0,-5.125503765E0,-4.612312943E0,7.625629860E0
1.031127263E1,3.104979100E0,-5.154570858E0,-4.736848111E0,7.658212975E0
1.032127163E1,2.345090449E0,-5.378477703E0,-4.025172969E0,7.115440186E0
1.033127163E1,8.936473636E-1,-5.712610994E0,-3.160846907E0,6.589649698E0
1.034127063E1,6.210596716E-1,-4.005830964E0,-2.616796235E0,4.824937240E0
1.035127062E1,7.058665180E-1,-1.317273606E0,-1.858113133E0,2.384542244E0
1.036126962E1,4.798168154E-1,4.463933998E-1,-8.363858731E-1,1.062559444E0
1.037126962E1,1.366323267E-1,1.011375350E0,-5.317107081E-1,1.150767035E0
1.038126962E1,-3.122021395E-1,7.608022785E-1,-4.171473813E-1,9.221183333E-1
1.039126862E1,-1.139365199E0,2.231046063E-1,1.029729760E-1,1.165560876E0
1.040126862E1,-2.674970768E0,-4.418138605E-1,7.569841929E-1,2.814905534E0
1.041126762E1,-4.640050380E0,-1.198844100E0,1.179755426E0,4.935495676E0
1.042126762E1,-6.041834963E0,-1.801928262E0,1.407485911E0,6.460010199E0
1.043126762E1,-6.749758531E0,-1.987479710E0,1.607765619E0,7.217632999E0
1.044126662E1,-7.604515625E0,-2.194477576E0,1.700005299E0,8.095332467E0
1.045126662E1,-9.306058888E0,-2.624346744E0,3.988970518E-1,9.677243757E0
1.046126562E1,-8.665741997E0,-2.386379101E0,-8.222740567E-1,9.025853100E0
1.047126562E1,-5.853212557E0,1.512333797E0,3.916011885E-2,6.045559053E0
1.048126462E1,-4.149516641E0,5.184160693E0,7.135721250E-1,6.678562392E0
1.049126462E1,-3.728614763E0,7.404140316E0,1.190257026E0,8.374996934E0
1.050126462E1,-2.903929022E0,8.143525413E0,9.830676632E-1,8.701507452E0
1.051126362E1,-1.716375895E0,7.846304424E0,6.742450681E-1,8.060089686E0
1.052126363E1,-1.001417249E0,6.824322225E0,5.502724019E-1,6.919321503E0
1.053126263E1,-7.343769568E-1,5.708299842E0,6.321003842E-1,5.789952288E0
1.054126263E1,-4.854422754E-1,4.946908164E0,6.065234935E-1,5.007536853E0
1.055126163E1,-5.312897086E-2,4.513564580E0,6.297614980E-1,4.557596675E0
1.056126163E1,4.503619051E-1,4.364999110E0,8.527322030E-1,4.470256736E0
1.057126163E1,8.705027685E-1,4.402868602E0,1.160730633E0,4.635765589E0
1.058126063E1,1.257382330E0,4.498928999E0,1.506263802E0,4.908177167E0
1.059126063E1,1.519634338E0,4.425444701E0,1.690282695E0,4.975028132E0
1.060125963E1,1.736829163E0,4.061573056E0,1.750204815E0,4.751438532E0
1.061125963E1,1.995842983E0,3.622916692E0,1.870222717E0,4.539454546E0
1.062125863E1,2.058457307E0,3.139641395E0,1.880532382E0,4.198928031E0
1.063125863E1,2.034764681E0,2.401876561E0,1.886470960E0,3.669884331E0
1.064125863E1,1.911335806E0,1.517212129E0,1.866688660E0,3.072403580E0
1.065125763E1,1.701430412E0,6.280114263E-1,1.539085393E0,2.378665097E0
1.066125763E1,1.747579854E0,-7.644532800E-2,1.001851551E0,2.015833764E0
1.067125663E1,1.940942305E0,-9.754500568E-1,5.447032213E-1,2.239522593E0
1.068125663E1,2.219957695E0,-2.005439433E0,3.931257038E-1,3.017374240E0
1.069125563E1,2.382828087E0,-2.693390082E0,1.881422035E-1,3.601057805E0
1.070125563E1,2.635203270E0,-3.303164043E0,-1.115580042E-1,4.227012438E0
1.071125004E1,2.679359688E0,-3.749399568E0,-5.441209848E-1,4.640369932E0
1.072125004E1,2.752073031E0,-4.059919463E0,-9.816551220E-1,5.002049459E0
1.073125004E1,2.968760318E0,-4.392483362E0,-1.270784733E0,5.451820040E0
1.074124904E1,2.877527089E0,-4.516202844E0,-1.559900311E0,5.577592604E0
1.075124904E1,2.637226991E0,-4.496846806E0,-1.921085161E0,5.555822675E0
1.076124804E1,2.286056668E0,-4.355564627E0,-2.182593695E0,5.381515915E0
1.077124804E1,2.233864713E0,-4.444691981E0,-2.345974256E0,5.499912142E0
1.078124704E1,2.517919818E0,-4.904400660E0,-3.250798134E0,6.400058949E0
1.079124704E1,2.950100391E0,-5.151819744E0,-4.889446991E0,7.690970736E0
1.080124704E1,3.015973661E0,-5.078261771E0,-5.959924242E0,8.390800719E0
1.081124604E1,2.840089121E0,-5.465626359E0,-5.606084665E0,8.328707162E0
1.082124604E1,2.627518859E0,-6.103815449E0,-4.388852241E0,7.963820841E0
1.083124504E1,2.558537794E0,-5.615867642E0,-3.040317666E0,6.879506997E0
1.084124504E1,2.401174895E0,-3.844647787E0,-1.626120613E0,4.815726916E0
1.085124404E1,2.133597682E0,-2.161202241E0,-4.539784080E-1,3.070688944E0
1.086124404E1,1.929773685E0,-7.879386216E-1,-1.073758124E0,2.344745243E0
1.087124404E1,1.594567576E0,2.683486068E-1,-8.675677586E-1,1.835028758E0
1.088124304E1,1.008443263E0,6.928254730E-1,-5.417842913E-1,1.338093857E0
1.089124304E1,-1.819457629E-1,6.571463478E-1,-1.417798134E-1,6.964532278E-1
1.090124204E1,-2.673852780E0,3.686844885E-1,3.474509096E-1,2.721422253E0
1.091124204E1,-4.948737173E0,-5.773985124E-1,7.555585686E-1,5.039271515E0
1.092124104E1,-6.317194381E0,-1.737731096E0,5.556844020E-1,6.575366102E0
1.093124104E1,-7.075223325E0,-2.475241576E0,4.277830280E-2,7.495827903E0
1.094124004E1,-7.432463644E0,-2.200248193E0,-6.009299739E-1,7.774556242E0
1.095124004E1,-6.990079095E0,-2.127248629E0,-2.073062336E0,7.594997033E0
1.096124004E1,-7.560681973E0,-2.880932508E0,-3.048215208E0,8.646114732E0
1.097123904E1,-7.865461657E0,1.468855655E0,-1.870891639E0,8.217253771E0
1.098123904E1,-6.291528028E0,4.035630130E0,-1.843827216E0,7.698657953E0
1.099123804E1,-3.342082233E0,4.954168652E0,-9.223162620E-1,6.046814696E0
1.100123804E1,-1.003667842E0,5.918103787E0,-1.129962730E-1,6.003671354E0
1.101123704E1,-1.349417505E-1,6.333784686E0,3.453308554E-1,6.344626950E0
1.102123704E1,2.391093126E-1,6.819367880E0,6.526793674E-1,6.854702174E0
1.103123604E1,8.750846466E-1,7.351781423E0,6.971402796E-1,7.436428430E0
1.104123604E1,1.398829985E0,7.372454839E0,9.963211083E-1,7.569839591E0
1.105123604E1,1.588675337E0,7.009261470E0,1.434703384E0,7.328847760E0
1.106123504E1,1.530781762E0,6.357579930E0,1.326041214E0,6.672368446E0
1.107123504E1,1.398586156E0,5.756145269E0,9.352422631E-1,5.996993387E0
1.108123404E1,1.151171166E0,5.188618026E0,7.849021626E-1,5.372431803E0
1.109123404E1,1.077927774E0,4.628808523E0,1.103939990E0,4.879188470E0
1.110123304E1,1.052005312E0,4.302799353E0,1.320124708E0,4.622069525E0
1.111123304E1,3.944990686E-1,3.612655413E0,1.403474575E0,3.895721953E0
1.112123204E1,-2.815726697E-2,2.785857950E0,1.399284606E0,3.117658538E0
1.113123204E1,-2.640395012E-1,2.087843658E0,1.449220997E0,2.555200481E0
1.114123104E1,-4.669147879E-1,1.731758750E0,1.803677748E0,2.543668848E0
1.115123104E1,-3.425480193E-1,1.533676134E0,2.193769771E0,2.698541724E0
1.116123104E1,2.329413772E-2,1.511399996E0,2.339612485E0,2.785436976E0
1.117123004E1,4.873940760E-1,1.350706816E0,2.190770734E0,2.619434728E0
1.118123004E1,7.990901390E-1,8.583320814E-1,2.303677837E0,2.584997212E0
1.119122904E1,1.071902072E0,1.273085028E-1,2.284256310E0,2.526461635E0
1.120122904E1,1.118702016E0,-7.875386721E-1,2.497672080E0,2.847819724E0
1.121122804E1,1.274535430E0,-1.761703511E0,2.289426126E0,3.157453374E0
1.122122804E1,1.507386321E0,-2.728028988E0,2.050159231E0,3.730617717E0
1.123122704E1,2.118514351E0,-3.729308535E0,1.519709182E0,4.550314407E0
1.124122704E1,2.528293656E0,-4.659889398E0,5.117705333E-1,5.326231978E0
1.125122604E1,2.698772736E0,-5.294283060E0,-1.064564547E-1,5.943411510E0
1.126122604E1,2.515611922E0,-5.485789897E0,-6.108679748E-1,6.065917393E0
1.127122504E1,2.108038187E0,-5.417824786E0,-7.524055307E-1,5.861976160E0
1.128122504E1,2.146241555E0,-5.582438525E0,-1.127707898E0,6.086189103E0
1.129122504E1,2.528949421E0,-6.273142043E0,-2.235947199E0,7.123717860E0
1.130122404E1,3.088070999E0,-6.832615331E0,-5.233671992E0,9.143967262E0
1.131122404E1,4.034694283E0,-5.914963247E0,-9.403402165E0,1.181903213E1
1.132122304E1,2.578232093E0,-4.952580548E0,-7.002009169E0,8.955638850E0
1.133122304E1,5.396358781E-1,-6.356885866E0,-2.097404148E0,6.715676359E0
1.134122204E1,3.030531473E-1,-5.863704801E0,-8.990269482E-1,5.939959987E0
1.135122204E1,-7.659940213E-2,-4.586854751E0,-9.208896875E-1,4.679010770E0
1.136122104E1,-4.491943623E-1,-3.459419187E0,-4.841132033E-1,3.521891861E0
1.137122104E1,-1.011528839E0,-2.228751615E0,-2.114972985E-1,2.456675693E0
1.138122004E1,-1.521547401E0,-9.890658832E-1,-3.070652875E-1,1.840556140E0
1.139122004E1,-2.066544006E0,-2.025598294E-1,-5.090490930E-1,2.137934889E0
1.140121904E1,-3.291088373E0,-1.216840661E-1,-4.937619862E-1,3.330145731E0
1.141121904E1,-4.595519739E0,-3.794632459E-1,-2.451548950E-1,4.617672027E0
1.142121804E1,-5.373358465E0,-4.640935063E-1,3.750310564E-1,5.406386249E0
1.143121804E1,-5.405712279E0,-5.905103087E-2,1.053381820E0,5.507706013E0
1.144121704E1,-5.451263258E0,-3.036324602E-1,1.352649261E0,5.624777667E0
1.145121704E1,-5.334551665E0,-1.370937012E0,1.134785514E0,5.623579635E0
1.146121604E1,-5.915963706E0,-1.762099367E-1,1.459350421E0,6.095849421E0
1.147121604E1,-6.290028802E0,2.277881091E0,9.171767787E-1,6.752363870E0
1.148121504E1,-4.745224540E0,3.459984612E0,1.121561524E0,5.978841836E0
1.149121504E1,-2.584135442E0,4.194311868E0,1.575582544E0,5.172278838E0
1.150121504E1,-1.411083703E0,4.632151961E0,1.715816317E0,5.137315898E0
1.151121404E1,-9.851409397E-1,4.894801871E0,1.343594263E0,5.170573815E0
1.152121404E1,-6.307879767E-1,4.657407839E0,1.026074080E0,4.810630860E0
1.153121304E1,-3.191629574E-1,4.079506466E0,1.040693143E0,4.222236400E0
1.154121304E1,-2.110309830E-1,3.599257103E0,1.249224880E0,3.815723859E0
1.155121204E1,-2.722247261E-1,3.496945447E0,1.533869677E0,3.828248940E0
1.156121204E1,-2.175403959E-1,3.586555781E0,1.725717992E0,3.986076866E0
1.157121104E1,1.470001709E-1,3.790368084E0,1.842821641E0,4.217166213E0
1.158121104E1,7.718655029E-1,3.960959432E0,1.930014152E0,4.473246092E0
1.159121004E1,1.171031527E0,4.200497053E0,1.979564188E0,4.788962800E0
1.160121004E1,1.544980848E0,4.517686867E0,1.921088815E0,5.146556391E0
1.161120904E1,1.701849950E0,4.641516277E0,1.824350141E0,5.269555962E0
1.162120904E1,1.796768386E0,4.498047824E0,1.691733974E0,5.130572551E0
1.163120804E1,1.931855732E0,4.000685415E0,1.690081551E0,4.753306850E0
1.164120804E1,1.942194779E0,3.286341019E0,1.615778643E0,4.145225986E0
1.165120704E1,1.951828651E0,2.443824486E0,1.458396156E0,3.450917639E0
1.166120704E1,2.058501745E0,1.566568476E0,1.277717192E0,2.885156399E0
1.167120604E1,2.201922836E0,7.149472439E-1,9.224427080E-1,2.492090345E0
1.168120604E1,2.346715683E0,-8.743458509E-2,3.540712734E-1,2.374886475E0
1.169120504E1,2.197555550E0,-8.277119672E-1,-1.725864172E-2,2.348330334E0
1.170120504E1,1.936446966E0,-1.466658272E0,-2.283628611E-1,2.439889943E0
1.171120404E1,1.624556775E0,-1.952564231E0,-4.234097493E-1,2.575066525E0
1.172120792E1,1.473975770E0,-2.347782800E0,-6.002190256E-1,2.836362375E0
1.173120692E1,1.661305649E0,-2.846072577E0,-8.718466779E-1,3.408838835E0
1.174120692E1,2.071114482E0,-3.556546116E0,-1.166100789E0,4.277654325E0
1.175120592E1,2.285785064E0,-4.068804892E0,-1.289226851E0,4.841703470E0
1.176120592E1,2.212508635E0,-4.102623433E0,-1.389084431E0,4.863771073E0
1.177120492E1,2.009179897E0,-3.862502845E0,-1.575969629E0,4.630271305E0
1.178120492E1,2.126049950E0,-3.762816004E0,-1.538251580E0,4.587492844E0
1.179120392E1,2.276151777E0,-4.074927512E0,-1.476800852E0,4.895594131E0
1.180120392E1,2.487300581E0,-4.778614773E0,-1.651884615E0,5.634762294E0
1.181120292E1,2.611298975E0,-5.544076113E0,-1.935143037E0,6.426541905E0
1.182120292E1,2.728440339E0,-5.794112409E0,-2.418677951E0,6.845884043E0
1.183120192E1,2.736314785E0,-5.455097862E0,-2.805772982E0,6.716983945E0
1.184120192E1,2.781159420E0,-5.161706216E0,-2.863535872E0,6.525174056E0
1.185120092E1,2.723241287E0,-5.116438826E0,-2.436325432E0,6.287262599E0
1.186120092E1,2.472541916E0,-4.232645044E0,-1.622473705E0,5.163445412E0
1.187119992E1,2.287594485E0,-2.950959347E0,-9.342049670E-1,3.848894454E0
1.188119992E1,2.207699739E0,-1.377910402E0,-1.302214687E0,2.910040945E0
1.189119892E1,1.957754512E0,-3.243052912E-1,-1.126601751E0,2.281930796E0
1.190119892E1,1.505772636E0,1.308355433E-1,-8.373669628E-1,1.727904106E0
1.191119792E1,8.305874817E-1,6.138874769E-2,-6.567604315E-1,1.060649993E0
1.192119792E1,-1.202079365E-1,-4.140144432E-1,-4.589129464E-1,6.296499023E-1
1.193119692E1,-1.936187642E0,-9.975221264E-1,-5.413366869E-2,2.178716005E0
1.194119692E1,-6.151979549E0,-1.355061237E0,8.150656092E-1,6.351958381E0
1.195119592E1,-7.773424144E0,-1.856469920E0,5.938326967E-1,8.014065183E0
1.196119592E1,-7.544136107E0,-2.329384536E0,4.254682615E-2,7.895684400E0
1.197119492E1,-7.642749984E0,-2.592699274E0,-1.120201389E0,8.147918016E0
1.198119492E1,-7.731787291E0,-4.308716151E0,-3.326008530E0,9.455575197E0
1.199119392E1,-7.779402337E0,-1.313383453E0,-3.674534158E0,8.703233772E0
1.200119392E1,-6.661764953E0,2.729676148E0,-3.007461576E0,7.802247708E0
1.201119292E1,-4.021890342E0,4.712109711E0,-1.628319605E0,6.405544832E0
1.202119292E1,-1.868640022E0,5.705544049E0,-4.481376243E-1,6.020454780E0
1.203119192E1,-4.742980671E-1,6.254454342E0,2.657945430E-1,6.278041455E0
1.204119092E1,4.306208280E-1,6.666687723E0,4.177367806E-1,6.693628576E0
1.205119092E1,9.843626752E-1,7.223267224E0,4.128509934E-1,7.301712485E0
1.206118992E1,1.286811951E0,7.684479223E0,5.079243810E-1,7.808014671E0
1.207118992E1,1.484907724E0,7.525890455E0,7.822745700E-1,7.710767251E0
1.208118892E1,1.848095830E0,7.107052644E0,1.072351430E0,7.421293221E0
1.209118892E1,2.033839652E0,6.818100203E0,1.234939109E0,7.221361971E0
1.210118792E1,2.302101427E0,6.686938970E0,1.303169099E0,7.191180256E0
1.211118792E1,2.477953807E0,5.817408886E0,8.836160266E-1,6.384612635E0
1.212118692E1,2.020176463E0,4.796651679E0,3.656965613E-1,5.217539098E0
1.213118692E1,1.501544807E0,4.326712711E0,1.861567815E-1,4.583637642E0
1.214118592E1,8.073507929E-1,4.031611338E0,7.687942529E-1,4.182911652E0
1.215118592E1,4.044481060E-1,3.398836770E0,1.267019419E0,3.649795593E0
1.216118492E1,3.210904920E-1,2.863183284E0,1.512738132E0,3.254119586E0
1.217118492E1,2.088952875E-1,2.507742155E0,1.593725284E0,2.978652084E0
1.218118392E1,-3.727512270E-2,1.868461974E0,1.655471589E0,2.496622872E0
1.219118392E1,-2.259410906E-1,1.181027634E0,1.800624332E0,2.165207527E0
1.220118292E1,-3.053810701E-1,4.250142252E-1,1.910135957E0,1.980533783E0
1.221118292E1,-1.672505406E-1,-4.157908273E-1,1.998326587E0,2.047965797E0
1.222118192E1,2.384307432E-1,-1.401851826E0,1.966148483E0,2.426474318E0
1.223118092E1,1.089377207E0,-2.634622641E0,1.806396704E0,3.375062697E0
1.224118092E1,2.646781341E0,-4.420292135E0,1.046888999E0,5.257414821E0
1.225117992E1,3.696804740E0,-6.096524556E0,-1.881902969E-1,7.132278215E0
1.226117992E1,3.005523224E0,-6.330713729E0,-9.471670747E-1,7.071649852E0
1.227117892E1,1.747778659E0,-5.437000730E0,-7.949194662E-1,5.766073546E0
1.228117892E1,8.913963318E-1,-4.519194279E0,8.983369768E-3,4.606276702E0
1.229117792E1,7.831950679E-1,-4.220156561E0,2.802520761E-1,4.301355268E0
1.230117792E1,1.224020749E0,-4.517808489E0,1.417291984E-1,4.682831142E0
1.231117692E1,1.859306989E0,-5.177833421E0,-1.992052817E-1,5.505148877E0
1.232117692E1,2.139590932E0,-5.805118623E0,-6.690887010E-1,6.222935905E0
1.233117592E1,2.391252463E0,-5.833073577E0,-1.267803823E0,6.430409180E0
1.234117592E1,2.547257930E0,-5.559433240E0,-1.593415090E0,6.319398117E0
1.235117492E1,2.653271751E0,-5.132189471E0,-1.650151939E0,6.008512393E0
1.236117492E1,2.483864465E0,-5.153309614E0,-1.991437836E0,6.057392782E0
1.237117392E1,1.427043678E0,-5.301450577E0,-1.795201771E0,5.776208209E0
1.238117292E1,6.029683864E-1,-3.761716728E0,-1.478260317E0,4.086482250E0
1.239117292E1,4.325948480E-1,-2.168545175E0,-1.096598664E0,2.468249401E0
1.240117192E1,-3.012219456E-1,-1.009538739E0,-9.334143504E-1,1.407538801E0
1.241117192E1,-1.240971096E0,7.925725400E-2,-1.579194953E0,2.010011859E0
1.242117092E1,-1.636014102E0,7.684878588E-1,-2.146126950E0,2.805882502E0
1.243117092E1,-1.933576129E0,9.640544182E-1,-1.361064574E0,2.553549362E0
1.244116992E1,-2.653864366E0,5.142433208E-1,3.699876867E-2,2.703481307E0
1.245116992E1,-3.439179634E0,7.175703049E-3,6.768397701E-1,3.505156220E0
1.246116892E1,-4.183056563E0,-7.659045589E-1,1.126225190E0,4.399199379E0
1.247116892E1,-5.243241545E0,-1.410748950E0,1.305075145E0,5.584354540E0
1.248116792E1,-6.284305547E0,-1.881278486E0,1.218173826E0,6.672005128E0
1.249116792E1,-7.363919658E0,-1.680082228E0,1.218781936E0,7.650844295E0
1.250116692E1,-7.814804304E0,-3.753269255E-1,1.144681342E0,7.907106423E0
1.251116592E1,-6.184188936E0,1.621223570E0,1.162076808E0,6.497921296E0
1.252116592E1,-3.794727476E0,3.115471929E0,1.323323135E0,5.085007972E0
1.253116492E1,-1.909493933E0,3.915104982E0,1.589626386E0,4.636930682E0
1.254116492E1,-8.322824433E-1,4.119113166E0,1.649518247E0,4.514498620E0
1.255116392E1,-4.729429749E-1,4.072786261E0,1.787168720E0,4.472721210E0
1.256116392E1,-5.140085551E-1,3.949509999E0,1.821476673E0,4.379567478E0
1.257116292E1,-4.753660610E-1,3.701197461E0,1.794469553E0,4.140646871E0
1.258116292E1,-1.754869285E-1,3.611898783E0,1.877903473E0,4.074693846E0
1.259116192E1,3.055003533E-1,3.827126021E0,1.926938224E0,4.295732180E0
1.260116192E1,8.086468282E-1,4.432881775E0,1.729915269E0,4.826692176E0
1.261116092E1,1.258317008E0,5.064510874E0,1.331248305E0,5.385615483E0
1.262115992E1,1.426149931E0,5.534389030E0,9.534084658E-1,5.794165450E0
1.263115992E1,1.511734165E0,5.817455664E0,5.560421419E-1,6.036332781E0
1.264115892E1,1.300107058E0,5.693163155E0,1.310958175E-1,5.841196040E0
1.265115892E1,1.105816069E0,5.188981138E0,-2.051565047E-1,5.309467357E0
1.266115792E1,1.006299089E0,4.459037540E0,-2.826181519E-1,4.579904656E0
1.267115792E1,1.207640944E0,3.661108366E0,-2.121158974E-1,3.860971933E0
1.268115692E1,1.631322881E0,2.771546305E0,-2.929466005E-1,3.229318965E0
1.269115592E1,1.889038911E0,1.998756065E0,-6.225624061E-1,2.819765551E0
1.270115592E1,1.821637179E0,1.310303140E0,-9.360000622E-1,2.431327302E0
1.271115492E1,1.622075509E0,5.430303329E-1,-1.017619007E0,1.990366635E0
1.272115150E1,1.457949136E0,-2.184332657E-1,-9.636725950E-1,1.761247753E0
1.273115050E1,1.587883624E0,-1.008708435E0,-8.762403488E-1,2.075250408E0
1.274115050E1,1.815537948E0,-1.753846022E0,-8.523322535E-1,2.664324339E0
1.275114950E1,2.002494190E0,-2.762425234E0,-7.783252144E-1,3.499538011E0
1.276114950E1,2.042139482E0,-3.717539844E0,-6.592443287E-1,4.292439777E0
1.277114850E1,2.190191275E0,-4.571218126E0,-6.246767592E-1,5.107170844E0
1.278114750E1,2.112680876E0,-5.181380927E0,-3.984877467E-1,5.609716684E0
1.279114750E1,2.153975960E0,-5.513744266E0,-5.061221230E-1,5.941140284E0
1.280114650E1,2.179822992E0,-5.678384902E0,-9.779713762E-1,6.160528499E0
1.281114650E1,2.407348970E0,-5.677397307E0,-1.230165296E0,6.288201325E0
1.282114550E1,2.726586187E0,-5.499017469E0,-1.276430805E0,6.269189817E0
1.283114550E1,3.116908590E0,-5.787351859E0,-1.791647687E0,6.813116917E0
1.284114450E1,3.633341693E0,-6.427476377E0,-2.567701843E0,7.817078558E0
1.285114450E1,3.908943478E0,-6.495161406E0,-3.143775376E0,8.206721905E0
1.286114350E1,3.962608639E0,-6.149385724E0,-3.085654052E0,7.939677131E0
1.287114250E1,3.774947515E0,-5.502283139E0,-2.487195039E0,7.121199874E0
1.288114250E1,3.511335445E0,-4.324211272E0,-1.982459875E0,5.912565170E0
1.289114150E1,3.159437143E0,-2.717603987E0,-1.214359102E0,4.340746770E0
1.290114150E1,2.788525450E0,-1.541613144E0,-5.627956029E-1,3.235611869E0
1.291114050E1,2.592941349E0,-5.576834553E-1,-1.189149344E0,2.906618626E0
1.292114050E1,2.303425822E0,2.044478953E-1,-1.014813586E0,2.525354643E0
1.293113950E1,1.640690998E0,4.903954518E-1,-5.282889906E-1,1.792050196E0
1.294113850E1,8.451648827E-1,1.863811684E-1,-2.590646171E-1,9.034135790E-1
1.295113850E1,-1.974901472E-1,-4.441410524E-1,-1.150580013E-1,4.995017280E-1
1.296113750E1,-1.542819425E0,-1.059227208E0,2.209965388E-1,1.884434538E0
1.297113750E1,-3.896320217E0,-1.387449549E0,9.930804352E-1,4.253532207E0
1.298113650E1,-7.615997803E0,-1.048796945E0,1.403255597E0,7.814891159E0
1.299113650E1,-8.867018947E0,-1.215180636E0,8.102627063E-1,8.986501802E0
1.300113550E1,-9.474453437E0,-2.150373198E0,1.748482664E-1,9.716992576E0
1.301113450E1,-8.871160530E0,-4.747537991E0,-2.417140279E0,1.034790671E1
1.302113450E1,-7.146472818E0,-1.487151008E0,-5.235080001E0,8.982747602E0
1.303113350E1,-5.822162672E0,3.529793351E0,-4.291327701E0,8.048137220E0
1.304113350E1,-3.510361299E0,5.651261423E0,-2.183752321E0,7.002011591E0
1.305113250E1,-1.508026738E0,6.181905014E0,-4.908012486E-1,6.382082741E0
1.306113250E1,-2.726559582E-1,6.802163032E0,1.467765149E-1,6.809207482E0
1.307113150E1,6.308201364E-1,7.239287426E0,5.008375557E-1,7.283958727E0
1.308113050E1,1.395678044E0,7.831541959E0,4.883864947E-1,7.969911419E0
1.309113050E1,2.104518456E0,8.172720560E0,3.758242312E-1,8.447698097E0
1.310112950E1,2.603966859E0,7.772923037E0,6.773661657E-1,8.225436212E0
1.311112950E1,2.818354436E0,7.189960315E0,1.021786756E0,7.789910091E0
1.312112850E1,2.714187459E0,6.706975039E0,1.130367504E0,7.323118081E0
1.313112850E1,2.824528511E0,6.307218447E0,8.425815828E-1,6.961961618E0
1.314112750E1,2.777061399E0,5.699405057E0,5.100023353E-1,6.360455204E0
1.315112650E1,2.181748188E0,4.822990462E0,2.592351365E-1,5.299855187E0
1.316112650E1,1.715827719E0,3.770603326E0,-1.334920795E-1,4.144796055E0
1.317112550E1,1.271143168E0,3.079889867E0,-2.298715889E-1,3.339815488E0
1.318112550E1,9.791007659E-1,2.832769577E0,-6.993123740E-3,2.997210485E0
1.319112450E1,5.455066288E-1,2.918035430E0,1.136325670E0,3.178638746E0
1.320112450E1,5.750222039E-1,2.408165826E0,1.244376661E0,2.770990158E0
1.321112350E1,7.673423892E-1,1.961328038E0,1.072369703E0,2.363387144E0
1.322112250E1,1.052860175E0,1.372919219E0,1.034990061E0,2.016091802E0
1.323112250E1,1.309679827E0,7.310826355E-1,9.039561510E-1,1.751250922E0
1.324112150E1,1.322817351E0,-5.448494017E-2,8.702960694E-1,1.584370412E0
1.325112150E1,1.416630079E0,-1.062342020E0,6.274226117E-1,1.878582040E0
1.326112050E1,1.162910621E0,-2.624209335E0,4.447360066E-1,2.904587038E0
1.327111950E1,8.533049378E-1,-4.426876100E0,1.798593302E-1,4.511951983E0
1.328111950E1,6.424169192E-1,-6.037297524E0,-3.879098412E-1,6.083759934E0
1.329111850E1,1.640181997E-1,-6.589803270E0,-9.355232218E-1,6.657898527E0
1.330111850E1,1.729121071E-1,-6.066388006E0,-7.524208796E-1,6.115316772E0
1.331111750E1,4.200712815E-1,-5.345798784E0,-2.716043365E-1,5.369152022E0
1.332111750E1,9.785973206E-1,-5.178409372E0,-4.036273031E-1,5.285498211E0
1.333111650E1,1.617099529E0,-5.784428251E0,-9.565550718E-1,6.081909131E0
1.334111550E1,2.149532368E0,-7.062360620E0,-2.005337691E0,7.649758571E0
1.335111550E1,2.632806204E0,-7.909527444E0,-3.416086056E0,9.008991999E0
1.336111450E1,2.686194499E0,-7.838324729E0,-4.243318552E0,9.309174387E0
1.337111450E1,1.222973805E0,-7.244929989E0,-2.909828278E0,7.902643613E0
1.338111350E1,-1.016631412E0,-6.891009720E0,-1.433574725E0,7.111588492E0
1.339111250E1,-1.146142853E0,-5.545968856E0,-1.297803547E0,5.809966269E0
1.340111250E1,-1.199663588E0,-3.906894906E0,-1.275004084E0,4.281197957E0
1.341111150E1,-2.032285754E0,-2.333673468E0,-1.212592074E0,3.323642096E0
1.342111150E1,-2.777811305E0,-6.428347027E-1,-1.464533247E0,3.205359532E0
1.343111050E1,-3.385937812E0,2.774673396E-1,-1.567320282E0,3.741397581E0
1.344111050E1,-4.052979695E0,1.232780170E-1,-1.116701172E0,4.205813047E0
1.345110950E1,-4.652450570E0,-1.950210142E-1,-4.680321177E-1,4.679998244E0
1.346110850E1,-4.777087480E0,-3.125500488E-1,1.382881120E-2,4.787321126E0
1.347110850E1,-4.745778271E0,-8.245626569E-2,3.918957054E-1,4.762645555E0
1.348110750E1,-4.388462816E0,2.977811515E-1,7.679195094E-1,4.465084532E0
1.349110750E1,-4.116516126E0,6.870928627E-1,1.146074222E0,4.327965773E0
1.350110650E1,-3.922657538E0,9.994329965E-1,1.266994568E0,4.241625126E0
1.351110550E1,-3.612280022E0,1.589057452E0,1.315322975E0,4.159777046E0
1.352110550E1,-2.794675844E0,2.207344959E0,1.486274511E0,3.858963172E0
1.353110450E1,-1.773011734E0,2.787020962E0,1.767512720E0,3.746352581E0
1.354110450E1,-8.562709379E-1,3.159371654E0,1.815221322E0,3.742974434E0
1.355110350E1,-1.994102266E-1,3.428814275E0,1.723073881E0,3.842592272E0
1.356110250E1,-3.439244539E-2,3.604189814E0,1.774564462E0,4.017517403E0
1.357110250E1,9.046198100E-2,3.751928489E0,1.973458672E0,4.240246441E0
1.358110150E1,1.508862305E-1,3.952721289E0,2.068394065E0,4.463745765E0
1.359110150E1,2.400802428E-1,4.252908570E0,2.161006798E0,4.776486178E0
1.360110050E1,5.798271534E-1,4.629203210E0,2.144555072E0,5.134670227E0
1.361109950E1,9.968052578E-1,4.973493699E0,2.018659841E0,5.459326685E0
1.362109950E1,1.344545605E0,5.376376798E0,1.866959825E0,5.847971387E0
1.363109850E1,1.529270549E0,5.740144948E0,1.664352779E0,6.169116842E0
1.364109850E1,1.591035565E0,6.008629795E0,1.430548499E0,6.378204699E0
1.365109750E1,1.546122225E0,6.044156308E0,1.214111326E0,6.355815110E0
1.366109650E1,1.518431858E0,5.731368862E0,1.016778177E0,6.015651436E0
1.367109650E1,1.575449812E0,5.130941091E0,8.571481664E-1,5.435375016E0
1.368109550E1,1.475198422E0,4.454958522E0,7.371749226E-1,4.750399213E0
1.369109550E1,1.183148712E0,3.601143415E0,6.686724523E-1,3.849051522E0
1.370109450E1,9.614260948E-1,2.758919828E0,6.363409312E-1,2.990135203E0
1.371109350E1,7.090450644E-1,1.948995675E0,5.768372528E-1,2.152689077E0
1.372109300E1,4.615634161E-1,1.041235326E0,4.681082777E-1,1.231396423E0
1.373109200E1,4.067770520E-1,-2.094115967E-1,1.845662657E-1,4.933411530E-1
1.374109200E1,9.617728347E-1,-1.375447555E0,-2.939873318E-1,1.703904784E0
1.375109100E1,1.519097856E0,-2.221825588E0,-7.038666241E-1,2.782012844E0
1.376109000E1,1.966721217E0,-2.883671343E0,-9.944043180E-1,3.629379108E0
1.377109000E1,2.207847819E0,-3.716939920E0,-1.194873841E0,4.485304656E0
1.378108900E1,2.323841667E0,-4.646232641E0,-1.525951377E0,5.414447844E0
1.379108900E1,2.273857329E0,-5.350127478E0,-1.776227410E0,6.078591530E0
1.380108800E1,2.349116257E0,-5.878571346E0,-1.858832195E0,6.597818230E0
1.381108700E1,2.430391678E0,-5.978073415E0,-1.974397150E0,6.748511656E0
1.382108700E1,2.429782982E0,-5.782608013E0,-2.443315778E0,6.731433188E0
1.383108600E1,2.617035094E0,-5.788242974E0,-2.722829059E0,6.911326030E0
1.384108600E1,2.796504561E0,-5.991249531E0,-3.059678382E0,7.285405994E0
1.385108500E1,3.085857243E0,-6.333256683E0,-3.687130229E0,7.951577483E0
1.386108400E1,3.267350432E0,-6.330453528E0,-4.345519111E0,8.344684359E0
1.387108400E1,3.244251006E0,-6.408065960E0,-4.119003823E0,8.279774540E0
1.388108300E1,2.951185634E0,-6.241390493E0,-2.935870607E0,7.502252205E0
1.389108300E1,2.860238042E0,-5.227803141E0,-1.888603293E0,6.251216661E0
1.390108200E1,2.927301512E0,-3.511472270E0,-1.227655086E0,4.733568279E0
1.391108100E1,2.511325913E0,-1.381565496E0,-6.716661537E-1,2.943911766E0
1.392108100E1,2.059859761E0,-3.550698316E-1,-3.958892441E-1,2.127398673E0
1.393108000E1,1.603654295E0,1.663983089E-1,-8.357589054E-1,1.816008933E0
1.394108000E1,8.152857569E-1,3.097328603E-2,-4.588532317E-1,9.360536833E-1
1.395107900E1,-3.280361071E-1,-4.102108294E-1,1.097966766E-1,5.365966104E-1
1.396107800E1,-2.587188858E0,-1.062788748E0,7.422946715E-1,2.893798108E0
1.397107800E1,-6.531484895E0,-1.426484392E0,1.037038852E0,6.765397419E0
1.398107700E1,-7.676072681E0,-1.884025508E0,7.574015379E-1,7.940107116E0
1.399107600E1,-8.437800574E0,-2.089938131E0,3.681290030E-1,8.700565434E0
1.400107600E1,-9.362548254E0,-3.935471418E0,-2.059546058E0,1.036276870E1
1.401107500E1,-1.051897139E1,-4.022068098E0,-4.284306364E0,1.204911083E1
1.402107500E1,-9.898061407E0,9.997265267E-1,-3.954353832E0,1.070551199E1
1.403107400E1,-7.806268539E0,4.318666942E0,-3.032999876E0,9.422727891E0
1.404107300E1,-4.668303249E0,5.879177703E0,-1.406175842E0,7.637742872E0
1.405107300E1,-1.698799750E0,6.475798352E0,-5.374269462E-1,6.716450893E0
1.406107200E1,-5.327754861E-1,6.913419174E0,1.731360555E-1,6.936078899E0
1.407107200E1,1.905323991E-1,7.244041212E0,3.180228965E-1,7.253521506E0
1.408107100E1,9.041309828E-1,7.533877167E0,5.054847765E-1,7.604753307E0
1.409107000E1,1.682091331E0,7.514709409E0,7.514796241E-1,7.737248243E0
1.410107000E1,2.032033447E0,7.032675476E0,1.228107514E0,7.422663427E0
1.411106900E1,2.101744536E0,6.556760069E0,1.391804409E0,7.024638938E0
1.412106800E1,2.373312328E0,6.226442671E0,1.539309926E0,6.838908889E0
1.413106800E1,2.862416714E0,5.878318162E0,1.343442235E0,6.674795195E0
1.414106700E1,2.423631712E0,5.327295855E0,1.158087838E0,5.966174590E0
1.415106700E1,2.031341429E0,4.570697724E0,1.038240821E0,5.108382297E0
1.416106600E1,1.940249118E0,3.694211792E0,6.748141484E-1,4.226954168E0
1.417106500E1,1.840910479E0,3.244225278E0,2.944482386E-1,3.741744087E0
1.418106500E1,1.311481062E0,3.707886091E0,1.494939646E0,4.207522594E0
1.419106400E1,1.156973358E0,3.442259363E0,1.558937567E0,3.951964475E0
1.420106400E1,1.169862376E0,2.949284704E0,1.448956703E0,3.488027204E0
1.421106300E1,1.143574171E0,2.461470214E0,1.540920249E0,3.121062754E0
1.422106200E1,1.271430558E0,1.828236639E0,1.785695221E0,2.854416279E0
1.423106200E1,1.342339742E0,1.202246595E0,1.817017586E0,2.559067363E0
1.424106100E1,1.095952401E0,3.934942245E-1,1.614938983E0,1.990973954E0
1.425106000E1,9.553479141E-1,-6.318319970E-1,1.511680370E0,1.896596650E0
1.426106000E1,1.022922139E0,-1.967736002E0,1.472869184E0,2.662273147E0
1.427105900E1,1.670387544E0,-3.644068995E0,1.479439116E0,4.272958399E0
1.428105900E1,3.054589842E0,-5.585434638E0,3.869032431E-1,6.377875298E0
1.429105800E1,3.193375552E0,-6.566131402E0,-8.759912574E-1,7.353848631E0
1.430105700E1,2.340163001E0,-6.447953326E0,-1.060658899E0,6.940998650E0
1.431105700E1,1.491520048E0,-5.504621440E0,-3.036483939E-1,5.711190034E0
1.432105600E1,1.087600822E0,-4.960019960E0,1.419398443E-1,5.079844533E0
1.433105500E1,1.228902882E0,-5.022161829E0,1.193498576E-1,5.171707273E0
1.434105500E1,1.625628862E0,-5.719007848E0,-6.690732790E-1,5.983091092E0
1.435105400E1,2.173043438E0,-6.533511540E0,-1.804353540E0,7.117905768E0
1.436105400E1,2.748438109E0,-6.572498435E0,-2.743721745E0,7.634111391E0
1.437105300E1,2.678984882E0,-5.943625129E0,-2.868992493E0,7.122833537E0
1.438105200E1,1.884387158E0,-5.982123781E0,-2.160909880E0,6.633720782E0
1.439105200E1,3.701009765E-1,-6.438635203E0,-1.950729375E0,6.737829258E0
1.440105100E1,-1.086875183E0,-6.437064056E0,-1.715224578E0,6.749747157E0
1.441105000E1,-1.186007415E0,-4.600696279E0,-9.758265444E-1,4.850284248E0
1.442105000E1,-1.871055799E0,-2.373404714E0,-6.492678094E-1,3.091188837E0
1.443104900E1,-2.668204078E0,-6.473768198E-1,-1.062102211E0,2.943887032E0
1.444104900E1,-2.849578568E0,1.035013888E0,-1.174562953E0,3.251299724E0
1.445104800E1,-3.729372854E0,2.042645851E0,-9.225362635E-1,4.351057011E0
1.446104700E1,-4.526974292E0,1.798011796E0,-7.676680791E-1,4.931090847E0
1.447104700E1,-5.443340281E0,9.164270926E-1,-3.749714148E-1,5.532666228E0
1.448104600E1,-6.342807525E0,-1.094891131E-2,5.135772864E-1,6.363575159E0
1.449104500E1,-6.442608386E0,-3.732324529E-1,1.206572950E0,6.565235987E0
1.450104500E1,-6.190994511E0,2.735444427E-2,1.211844800E0,6.308544136E0
1.451104400E1,-6.102745993E0,5.706432241E-1,1.220582879E0,6.249717186E0
1.452104400E1,-5.506272694E0,1.236914152E0,1.183582867E0,5.766269505E0
1.453104300E1,-4.205017535E0,2.052426488E0,1.204610624E0,4.831740237E0
1.454104200E1,-2.589732397E0,2.441610146E0,1.688748386E0,3.939548845E0
1.455104200E1,-1.451910717E0,2.396645642E0,2.127459129E0,3.518243512E0
1.456104100E1,-4.965791747E-1,2.279783190E0,2.215398914E0,3.217451572E0
1.457104000E1,1.012021467E-1,2.225008813E0,2.216946087E0,3.142571565E0
1.458104000E1,4.356953341E-1,2.351800421E0,2.357377496E0,3.358276984E0
1.459103900E1,5.930658343E-1,2.608131831E0,2.480777135E0,3.648058925E0
1.460103900E1,7.374406055E-1,3.018236825E0,2.564509263E0,4.028682159E0
1.461103800E1,1.042684851E0,3.478858255E0,2.525596043E0,4.423605072E0
1.462103700E1,1.502371603E0,3.917480121E0,2.297841292E0,4.783706255E0
1.463103700E1,2.039634827E0,4.367321039E0,1.896610032E0,5.179839080E0
1.464103600E1,2.403669317E0,4.813071830E0,1.460439173E0,5.574600363E0
1.465103500E1,2.436015530E0,5.112391384E0,1.002233813E0,5.751103367E0
1.466103500E1,2.072133067E0,5.315894954E0,5.752152351E-1,5.734400332E0
1.467103400E1,1.542743703E0,5.348938739E0,1.903386370E-1,5.570227335E0
1.468103400E1,1.200792977E0,4.984734387E0,-1.522872964E-1,5.129587908E0
1.469103300E1,1.059107048E0,4.404847884E0,-2.123966002E-1,4.535361611E0
1.470103200E1,1.108567768E0,3.767541724E0,-1.808286524E-1,3.931410960E0
1.471103200E1,1.035334608E0,3.045501807E0,-2.601554517E-1,3.227178314E0
1.472103154E1,9.753614715E-1,2.070569814E0,-6.426663029E-1,2.377311366E0
1.473103054E1,9.122615361E-1,9.804207748E-1,-9.925391293E-1,1.666907295E0
1.474103054E1,1.109801823E0,3.313207805E-2,-1.151612631E0,1.599677928E0
1.475102954E1,1.192115124E0,-6.838499969E-1,-1.215314537E0,1.834605874E0
1.476102954E1,1.603988610E0,-1.344377205E0,-1.275401695E0,2.450873112E0
1.477102854E1,1.965879803E0,-1.868982961E0,-1.278137022E0,2.998568818E0
1.478102754E1,2.265310162E0,-2.318522748E0,-1.300369890E0,3.492583530E0
1.479102754E1,2.432082692E0,-2.993344644E0,-1.469897629E0,4.127437149E0
1.480102654E1,2.515128357E0,-3.746361355E0,-1.435137686E0,4.735051661E0
1.481102554E1,2.491121736E0,-4.333670313E0,-1.388373994E0,5.187867407E0
1.482102554E1,2.324326694E0,-4.649158003E0,-1.453951102E0,5.397326979E0
1.483102454E1,2.053805847E0,-4.915589308E0,-1.547877851E0,5.547707863E0
1.484102354E1,1.862890162E0,-5.031853005E0,-1.576829755E0,5.592521479E0
1.485102354E1,2.084680899E0,-5.228235251E0,-1.486531203E0,5.821521563E0
1.486102254E1,2.416720303E0,-5.732259977E0,-1.693056614E0,6.447153028E0
1.487102254E1,2.671570027E0,-6.259448449E0,-2.063637940E0,7.111721511E0
1.488102154E1,2.691713978E0,-6.522633964E0,-2.211606994E0,7.394679403E0
1.489102054E1,2.583741048E0,-6.810525135E0,-2.128826793E0,7.588865128E0
1.490102054E1,2.494495580E0,-6.994865626E0,-1.831204686E0,7.648788395E0
1.491101954E1,2.340494245E0,-6.160044029E0,-1.133925973E0,6.686541996E0
1.492101854E1,2.201758529E0,-4.659617502E0,-2.086224418E-2,5.153659973E0
1.493101854E1,2.276690890E0,-2.964737141E0,-3.404927230E-1,3.753521416E0
1.494101754E1,2.277253100E0,-1.427257394E0,-5.606766450E-1,2.745415023E0
1.495101754E1,2.098905713E0,-4.833355236E-1,-2.999048603E-1,2.174617517E0
1.496101654E1,1.599635942E0,-8.410225689E-2,-2.108996948E-1,1.615669217E0
1.497101554E1,7.928344953E-1,-7.524138629E-2,3.953423101E-2,7.973774254E-1
1.498101554E1,-6.318132859E-1,-2.505058283E-1,1.751159592E-1,7.018595283E-1
1.499101454E1,-3.993197470E0,-4.357590687E-1,6.866092980E-1,4.075161878E0
1.500101354E1,-6.655374531E0,-9.643847859E-1,7.029815749E-1,6.761525808E0
1.501101354E1,-7.409995133E0,-1.538848581E0,4.499268723E-1,7.581458765E0
1.502101254E1,-7.641360101E0,-2.853865162E0,-9.896530898E-1,8.216711251E0
1.503101254E1,-8.602730647E0,-3.992808046E0,-1.858392630E0,9.664528640E0
1.504101154E1,-9.153112099E0,4.001202893E-1,-1.344575718E0,9.259991426E0
1.505101054E1,-7.575297089E0,3.191950586E0,-1.495546002E0,8.355257768E0
1.506101054E1,-4.750401080E0,4.268636411E0,-1.008692574E0,6.465680779E0
1.507100954E1,-2.099945348E0,5.110424965E0,-5.000632381E-1,5.547637067E0
1.508100854E1,-1.060052543E0,5.706478434E0,-1.880102026E-1,5.807146920E0
1.509100854E1,-5.537526646E-1,6.131066397E0,-7.482447982E-2,6.156477555E0
1.510100754E1,1.420022634E-1,6.544041790E0,1.491039991E-2,6.545599279E0
1.511100654E1,9.103418952E-1,6.789433059E0,1.930271137E-1,6.852910557E0
1.512100654E1,1.540635197E0,6.829802821E0,4.945588155E-1,7.018856873E0
1.513100554E1,2.139568713E0,6.735802982E0,9.268537013E-1,7.127962813E0
1.514100554E1,2.239675676E0,6.314898180E0,9.624341547E-1,6.769074210E0
1.515100454E1,2.374801614E0,5.309868813E0,1.479801643E-1,5.818615613E0
1.516100354E1,2.237566585E0,4.967379266E0,-2.530954139E-1,5.453954371E0
1.517100354E1,1.610842423E0,5.350836745E0,5.788114920E-1,5.617943567E0
1.518100254E1,1.165357973E0,4.894283808E0,1.442924569E0,5.233937763E0
1.519100154E1,9.506607860E-1,4.398593118E0,1.503738974E0,4.744745330E0
1.520100154E1,7.394923934E-1,4.032788383E0,1.547525410E0,4.382358501E0
1.521100054E1,7.105404899E-1,3.694639809E0,1.689357666E0,4.124216341E0
1.522099954E1,6.386159366E-1,3.367078788E0,1.926581690E0,3.931509492E0
1.523099954E1,5.701348087E-1,2.970291996E0,2.064392231E0,3.661885242E0
1.524099854E1,4.378023782E-1,2.319768789E0,2.130196942E0,3.179738538E0
1.525099854E1,2.590220055E-1,1.487645683E0,2.365042172E0,2.805994753E0
1.526099754E1,7.483091176E-2,6.598904461E-1,2.378411100E0,2.469391509E0
1.527099654E1,1.900181365E-1,-3.334784031E-1,2.203339908E0,2.236519951E0
1.528099654E1,4.500619429E-1,-1.548106477E0,1.895800923E0,2.488624230E0
1.529099554E1,9.318312898E-1,-2.976825675E0,1.425471800E0,3.429543775E0
1.530099454E1,2.140179747E0,-4.660496339E0,7.845864129E-1,5.188079732E0
1.531099454E1,2.598434808E0,-5.870427344E0,-1.134998645E-1,6.420799240E0
1.532099354E1,2.003878226E0,-6.020397901E0,-1.772522029E-1,6.347608776E0
1.533099354E1,1.243207802E0,-5.650159807E0,1.962560923E-1,5.788643014E0
1.534099254E1,1.267371421E0,-5.445000890E0,3.590766361E-1,5.602071139E0
1.535099154E1,1.662932636E0,-5.356268224E0,2.137622175E-1,5.612543855E0
1.536099154E1,2.055997675E0,-5.336773022E0,-2.030843246E-1,5.722719281E0
1.537099054E1,2.216555201E0,-5.490765293E0,-4.086139548E-1,5.935367371E0
1.538098954E1,2.448864201E0,-5.836918121E0,-5.446166825E-1,6.353200482E0
1.539098954E1,2.549160322E0,-6.053596637E0,-8.369108069E-1,6.621530812E0
1.540098854E1,2.559509309E0,-5.824776962E0,-1.116497908E0,6.459541945E0
1.541098854E1,2.568419589E0,-5.588686860E0,-1.544526812E0,6.341589948E0
1.542098754E1,2.028527164E0,-5.784345220E0,-1.736141238E0,6.370852257E0
1.543098654E1,1.037787077E0,-5.734018235E0,-1.825779054E0,6.106507700E0
1.544098654E1,4.349505450E-1,-4.384761529E0,-1.713644515E0,4.727778883E0
1.545098554E1,-2.005472177E-1,-2.559718055E0,-1.669667752E0,3.062705684E0
1.546098454E1,-1.353884047E0,-9.571003246E-1,-1.891309969E0,2.515173243E0
1.547098454E1,-2.200579146E0,3.348513293E-1,-1.990071781E0,2.985809719E0
1.548098354E1,-2.587643772E0,1.241215948E0,-1.459634596E0,3.219790440E0
1.549098254E1,-3.060042956E0,1.621925821E0,-1.432188935E0,3.747755516E0
1.550098254E1,-4.354685791E0,1.198035430E0,-1.341851792E0,4.711596700E0
1.551098154E1,-5.970855027E0,5.937204301E-2,-6.200972199E-1,6.003262060E0
1.552098154E1,-8.043356177E0,-9.233484417E-1,-3.860548121E-1,8.105380265E0
1.553098054E1,-8.929615729E0,-1.744202794E0,-1.124033654E-1,9.099061214E0
1.554097954E1,-8.536685761E0,-1.268359308E0,3.510867083E-1,8.637534428E0
1.555097954E1,-8.126674907E0,1.755220118E0,7.037591815E-1,8.343795281E0
1.556097854E1,-6.589872851E0,3.786866772E0,5.220101774E-1,7.618351447E0
1.557097754E1,-4.182673570E0,4.072548864E0,1.037304243E0,5.929284319E0
1.558097754E1,-1.880864503E0,4.042439212E0,1.445035268E0,4.686906548E0
1.559097654E1,-6.294843400E-1,4.081956450E0,1.304203910E0,4.331231560E0
1.560097654E1,-5.166716695E-2,4.110254050E0,1.125496627E0,4.261877580E0
1.561097554E1,1.979130471E-1,4.035556455E0,1.158957903E0,4.203340207E0
1.562097454E1,3.583843258E-1,3.858231454E0,1.365697907E0,4.108469307E0
1.563097454E1,4.585997549E-1,3.828418255E0,1.536471688E0,4.150643965E0
1.564097354E1,5.602182233E-1,4.006689336E0,1.652734215E0,4.370232749E0
1.565097254E1,8.355776417E-1,4.248662907E0,1.577141411E0,4.608329581E0
1.566097254E1,1.166810422E0,4.578887919E0,1.432138649E0,4.937477316E0
1.567097154E1,1.489719105E0,4.795940073E0,1.267137386E0,5.179376540E0
1.568097054E1,1.779162420E0,4.850279417E0,1.232141654E0,5.311195948E0
1.569097054E1,1.942135137E0,4.797040519E0,1.053441389E0,5.281403733E0
1.570096954E1,1.946279351E0,4.745606071E0,9.232940626E-1,5.211645826E0
1.571096954E1,1.960721097E0,4.592306694E0,8.590799403E-1,5.066727380E0
1.572096812E1,1.996409285E0,4.164576437E0,9.164645878E-1,4.708423757E0
1.573096712E1,1.925364446E0,3.430904070E0,9.467964343E-1,4.046548464E0
1.574096712E1,1.681240561E0,2.402337906E0,8.339125740E-1,3.048476246E0
1.575096612E1,1.256164355E0,1.337651737E0,5.830271883E-1,1.925404311E0
1.576096512E1,7.996429932E-1,1.711719757E-1,3.162842269E-1,8.767921499E-1
1.577096512E1,4.976217332E-1,-7.946418697E-1,1.797608777E-1,9.546711809E-1
1.578096412E1,5.135448709E-1,-1.513399744E0,1.778827520E-1,1.608026552E0
1.579096412E1,8.122089520E-1,-2.118011783E0,1.665976989E-1,2.274513593E0
1.580096312E1,1.248892173E0,-2.588696855E0,9.664504610E-2,2.875834372E0
1.581096212E1,1.865368505E0,-3.131502655E0,-1.090131497E-1,3.646613827E0
1.582096212E1,2.361715545E0,-3.702503144E0,-4.343206902E-1,4.413033459E0
1.583096112E1,2.375229630E0,-4.091571026E0,-6.458460188E-1,4.774912181E0
1.584096012E1,2.196852423E0,-4.395287102E0,-6.073971041E-1,4.951125177E0
1.585096012E1,1.903405812E0,-4.529098878E0,-5.691925299E-1,4.945671892E0
1.586095912E1,1.884161456E0,-4.445384876E0,-6.192248154E-1,4.867745932E0
1.587095912E1,2.064513560E0,-4.466872809E0,-7.645994604E-1,4.979937878E0
1.588095812E1,2.414305695E0,-4.664329188E0,-1.313409766E0,5.413860358E0
1.589095712E1,2.635746476E0,-5.061593113E0,-1.953490430E0,6.031832987E0
1.590095713E1,2.658599441E0,-5.367926987E0,-3.183221278E0,6.783486480E0
1.591095613E1,2.604587541E0,-5.639531323E0,-4.504479761E0,7.673234502E0
1.592095513E1,2.441178329E0,-6.489041710E0,-4.686735719E0,8.368542624E0
1.593095513E1,2.307570620E0,-6.698238714E0,-4.048127384E0,8.159572253E0
1.594095413E1,2.274801070E0,-5.745723191E0,-2.921684677E0,6.835517263E0
1.595095413E1,2.347580194E0,-4.038203489E0,-1.463211923E0,4.894814533E0
1.596095313E1,2.523332001E0,-2.461236910E0,-1.538876063E0,3.846170959E0
1.597095213E1,2.485819774E0,-8.822840309E-1,-1.574832931E0,3.072104135E0
1.598095213E1,2.133922203E0,2.497474444E-1,-1.162392558E0,2.442775923E0
1.599095113E1,1.501305071E0,7.638317209E-1,-9.440692198E-1,1.930964139E0
1.600095013E1,6.161674525E-1,7.653636914E-1,-6.340784973E-1,1.169401321E0
1.601095013E1,-1.335056597E0,4.071597522E-1,-4.864883423E-1,1.478115722E0
1.602094913E1,-4.749602643E0,-5.558830976E-2,-1.073233044E-1,4.751140244E0
1.603094913E1,-7.941880088E0,-6.820256656E-1,1.694733779E-1,7.972912866E0
1.604094813E1,-8.891233436E0,-1.297878976E0,-2.486563174E-1,8.988901592E0
1.605094713E1,-8.999633213E0,-2.370767035E0,-1.854895849E0,9.489708790E0
1.606094713E1,-9.252051666E0,-3.456343551E0,-2.781487741E0,1.026077214E1
1.607094613E1,-9.275052273E0,1.092267485E0,-1.512782278E0,9.460874862E0
1.608094513E1,-7.722763867E0,3.835686929E0,-2.077133313E0,8.869501608E0
1.609094513E1,-4.614043426E0,4.733786509E0,-1.132117868E0,6.706699808E0
1.610094413E1,-1.937453564E0,5.618336921E0,-7.188555229E-1,5.986333547E0
1.611094413E1,-8.332144895E-1,5.912051919E0,-4.219491148E-1,5.985369272E0
1.612094313E1,-8.261355579E-2,6.007060402E0,-9.841916442E-2,6.008434572E0
1.613094213E1,6.259008738E-1,6.462318766E0,-1.943373285E-2,6.492587574E0
1.614094213E1,1.183522349E0,6.837770821E0,1.410547952E-1,6.940873966E0
1.615094113E1,1.716031202E0,6.679766191E0,4.003121511E-1,6.908276867E0
1.616094013E1,2.186712766E0,6.509964802E0,7.092907937E-1,6.903944371E0
1.617094013E1,2.335416523E0,6.295362632E0,1.144805303E0,6.811485902E0
1.618093913E1,2.139438320E0,5.527048436E0,1.057733245E0,6.020320619E0
1.619093912E1,1.991545864E0,4.735163528E0,6.082658176E-1,5.172815082E0
1.620093812E1,1.622744139E0,4.250829885E0,8.671056823E-1,4.631924602E0
1.621093712E1,1.300317558E0,3.791669675E0,1.233386088E0,4.193903422E0
1.622093712E1,9.746992743E-1,3.454554888E0,1.543622832E0,3.907270095E0
1.623093612E1,7.579076144E-1,3.005076497E0,1.925303489E0,3.648520553E0
1.624093612E1,6.759936780E-1,2.596866585E0,2.288542904E0,3.526770780E0
1.625093512E1,6.494768474E-1,2.356962343E0,2.420565139E0,3.440381848E0
1.626093412E1,6.937826622E-1,2.006532277E0,2.506086223E0,3.284505187E0
1.627093412E1,7.185400656E-1,1.432891771E0,2.645893149E0,3.093578706E0
1.628093312E1,7.068842259E-1,7.209944344E-1,2.644388661E0,2.830602352E0
1.629093212E1,7.043436107E-1,-1.174442500E-1,2.576674103E0,2.673788044E0
1.630093212E1,6.691550669E-1,-1.038056780E0,2.410356778E0,2.708348238E0
1.631093112E1,5.958306903E-1,-1.971812680E0,2.263729075E0,3.060641890E0
1.632093112E1,5.540625671E-1,-2.984234097E0,2.169464649E0,3.730846464E0
1.633093012E1,7.360890216E-1,-4.073187380E0,1.995713174E0,4.595166325E0
1.634092912E1,1.510123549E0,-5.361341853E0,1.413961995E0,5.746629283E0
1.635092912E1,2.203005740E0,-6.171273606E0,2.713825808E-1,6.558315387E0
1.636092812E1,2.659680592E0,-6.508553869E0,-3.838216142E-1,7.041483746E0
1.637092812E1,2.586309437E0,-6.165925158E0,-4.067426996E-1,6.698736387E0
1.638092712E1,2.425574741E0,-5.725963696E0,-3.926004776E-1,6.230907494E0
1.639092612E1,2.569734920E0,-5.731455401E0,-6.499272291E-1,6.314706958E0
1.640092613E1,3.014122140E0,-6.150724736E0,-1.277025028E0,6.967577770E0
1.641092513E1,3.426262258E0,-6.371607401E0,-2.121790546E0,7.539141135E0
1.642092513E1,3.519775316E0,-5.989715806E0,-3.625328668E0,7.836358955E0
1.643092413E1,3.365618153E0,-6.075193913E0,-4.500099027E0,8.275642446E0
1.644092313E1,1.994767680E0,-6.918174714E0,-4.057649574E0,8.264669355E0
1.645092313E1,9.735923964E-1,-6.172857617E0,-3.267832242E0,7.052005451E0
1.646092213E1,9.453061983E-1,-3.560752603E0,-2.492147630E0,4.447849224E0
1.647092113E1,1.562259078E-1,-1.601544766E0,-2.273909662E0,2.785680764E0
1.648092113E1,-7.245764387E-1,-6.799025416E-2,-2.772980043E0,2.866888907E0
1.649092013E1,-1.399762031E0,6.385820228E-1,-1.505359823E0,2.152493656E0
1.650092013E1,-1.867320598E0,6.323927450E-1,-7.876784936E-1,2.123027133E0
1.651091913E1,-2.901069149E0,4.189179182E-2,-4.708786154E-1,2.939333904E0
1.652091813E1,-4.405743385E0,-1.058343694E0,5.068647194E-1,4.559339645E0
1.653091813E1,-5.335103642E0,-2.304384180E0,1.628467101E0,6.035347746E0
1.654091713E1,-6.696716684E0,-2.760665807E0,1.492368479E0,7.395569871E0
1.655091713E1,-8.463112001E0,-2.611201034E0,6.643547952E-1,8.881666672E0
1.656091613E1,-1.001440463E1,-1.554930178E0,3.482777059E-1,1.014038487E1
1.657091513E1,-9.928081012E0,6.306017429E-1,3.493395603E-1,9.954219671E0
1.658091513E1,-7.449719362E0,2.683119448E0,7.241191864E-1,7.951213564E0
1.659091413E1,-4.131400213E0,3.885813355E0,1.140802299E0,5.785278129E0
1.660091413E1,-2.113519952E0,4.821381308E0,1.378746554E0,5.441840347E0
1.661091313E1,-1.224906017E0,5.394813654E0,1.484810368E0,5.727920298E0
