"Time (s)","Linear Acceleration x (m/s^2)","Linear Acceleration y (m/s^2)","Linear Acceleration z (m/s^2)","Absolute acceleration (m/s^2)"
3.265012498E-2,3.112554753E-1,-1.695517123E-2,-3.371808600E-1,4.591931849E-1
4.264412494E-2,1.869977573E-1,1.437631524E-1,-4.615873897E-1,5.183617690E-1
5.263812514E-2,1.132868797E-2,2.247155142E-1,-3.864196783E-1,4.471527360E-1
6.263212510E-2,-3.928729579E-2,1.952280056E-1,-2.192822814E-1,2.962130732E-1
7.262612507E-2,4.702681661E-2,5.787690997E-2,5.616659939E-2,9.335922598E-2
8.262012503E-2,2.147584368E-1,-8.195048153E-2,2.750775826E-1,3.584755836E-1
9.261412499E-2,4.391108389E-1,-3.084125590E-1,5.011718702E-1,7.342410224E-1
1.026081250E-1,7.175638729E-1,-4.578217828E-1,5.042615390E-1,9.893322982E-1
1.126021249E-1,8.023444068E-1,-6.431954759E-1,1.867261541E-1,1.045142873E0
1.225961251E-1,6.319644365E-1,-7.793823910E-1,6.934213042E-3,1.003426153E0
1.325901251E-1,2.711226721E-1,-7.094029140E-1,-1.401472342E-1,7.722701891E-1
1.425841250E-1,-1.557559378E-2,-3.510878778E-1,-5.197163147E-1,6.273837301E-1
1.525781250E-1,-1.467575115E-1,-7.766681135E-2,-6.984253514E-1,7.178912677E-1
1.625721250E-1,-1.946605334E-1,4.491831064E-2,-7.185216469E-1,7.457772690E-1
1.725661249E-1,-1.961976202E-1,1.746732885E-1,-5.826539898E-1,6.391321739E-1
1.825601251E-1,-1.066144757E-1,1.510528761E-1,-2.479541034E-1,3.092973572E-1
1.925541251E-1,3.172026783E-2,-9.607033789E-2,1.862887824E-1,2.119886687E-1
2.025481251E-1,5.088678293E-2,-2.535194832E-1,7.953944063E-1,8.363694487E-1
2.125421250E-1,8.120985858E-2,-4.705236894E-1,1.125976099E0,1.223033016E0
2.225361250E-1,7.765862525E-2,-4.097986007E-1,9.261667997E-1,1.015751296E0
2.325301250E-1,-1.494769784E-1,-6.311484575E-2,1.198798492E0,1.209729174E0
2.425241251E-1,-2.202992584E-1,3.240363193E-1,1.598659165E0,1.645977650E0
2.525181251E-1,-9.245990150E-2,6.566762316E-1,1.295825434E0,1.455656574E0
2.625121251E-1,2.348234497E-2,9.845629424E-1,1.092054647E0,1.470543763E0
2.725061250E-1,5.903451249E-2,1.320681363E0,7.931169158E-1,1.541661046E0
2.825001250E-1,1.100155087E-1,1.337183960E0,5.431420147E-1,1.447469379E0
2.924941250E-1,4.521396048E-2,1.199759774E0,4.821532166E-1,1.293808155E0
3.024881249E-1,-1.098818998E-1,1.059155872E0,5.407528424E-1,1.194277535E0
3.124821251E-1,3.369604200E-2,6.125508034E-1,3.836545300E-1,7.235638938E-1
3.224761251E-1,3.740079398E-1,1.096656990E-1,-2.083819020E-1,4.419632583E-1
3.324701251E-1,5.557921004E-1,-2.027761763E-1,-5.643428493E-1,8.176220936E-1
3.424641250E-1,6.166424657E-1,-2.763628006E-1,-8.608025301E-1,1.094351554E0
3.524581250E-1,7.977343158E-1,-4.315204221E-1,-1.337365808E0,1.615901364E0
3.624521249E-1,1.079391551E0,-7.089374757E-1,-1.751982515E0,2.176492866E0
3.724461251E-1,1.368493461E0,-8.030185908E-1,-1.533020076E0,2.206300923E0
3.824391251E-1,1.429327016E0,-7.449224102E-1,-1.648303195E0,2.305382515E0
3.924328750E-1,1.330649989E0,-6.997626096E-1,-1.676318375E0,2.251741636E0
4.024268750E-1,1.273455595E0,-7.325251436E-1,-1.448327835E0,2.062991943E0
4.124208749E-1,1.405570948E0,-9.362000370E-1,-1.380822315E0,2.181460626E0
4.224148751E-1,1.745540930E0,-1.389061627E0,-1.375115433E0,2.620562496E0
4.324088751E-1,1.941422508E0,-1.675257105E0,-1.460044486E0,2.950819822E0
4.424028751E-1,1.840510675E0,-1.451021063E0,-1.616362780E0,2.847028329E0
4.523968750E-1,1.950804512E0,-1.226576859E0,-9.627487350E-1,2.497401482E0
4.623908750E-1,1.739413194E0,-6.486222768E-1,8.198381066E-3,1.856431073E0
4.723848749E-1,1.266703377E0,4.295873326E-1,1.083313644E0,1.721235362E0
4.823788751E-1,8.961861516E-1,1.695833457E0,2.193048517E0,2.913496615E0
4.923728751E-1,7.500586045E-1,2.681240737E0,3.584639064E0,4.538862966E0
5.023668751E-1,1.925108045E-1,3.795897796E0,5.372087281E0,6.580670349E0
5.123608750E-1,-6.298624355E-1,4.952496348E0,7.491558529E0,9.002632723E0
5.223548750E-1,-1.372618672E0,5.291091650E0,9.709553021E0,1.114249311E1
5.323488750E-1,-1.906759336E0,5.175265324E0,1.184920243E1,1.306991586E1
5.423428749E-1,-2.312962192E0,4.903831142E0,1.335342672E1,1.441219481E1
5.523368751E-1,-2.766645169E0,4.868519222E0,1.420073504E1,1.526491666E1
5.623308751E-1,-2.934470199E0,5.081409327E0,1.378534417E1,1.498224115E1
5.723248750E-1,-2.349640021E0,5.321103069E0,1.234149004E1,1.364358173E1
5.823188750E-1,-1.423823178E0,5.341443778E0,1.011132573E1,1.152376684E1
5.923128750E-1,-8.001491428E-1,5.210027021E0,7.522863936E0,9.185755386E0
6.023068749E-1,-7.466483621E-1,5.215514048E0,5.371145879E0,7.523847328E0
6.123008751E-1,-7.873214480E-1,5.096305693E0,3.795784360E0,6.403138738E0
6.222948751E-1,-5.733991265E-1,4.327301525E0,2.384544829E0,4.973970154E0
6.322888751E-1,-4.546294589E-1,3.043412012E0,1.139279099E0,3.281310940E0
6.422828750E-1,-5.029819855E-1,1.236538176E0,-2.212574708E-1,1.353134290E0
6.522768750E-1,-6.848234122E-1,-8.117022908E-1,-1.707440180E0,2.010769923E0
6.622708749E-1,-9.575691251E-1,-2.634648369E0,-3.136923024E0,4.206970016E0
6.722648751E-1,-9.338855629E-1,-4.317727879E0,-4.538357944E0,6.333372649E0
6.822578751E-1,-5.556774584E-1,-5.576265619E0,-5.789432883E0,8.057359915E0
6.922518751E-1,-9.350533797E-2,-6.352964138E0,-6.980617130E0,9.439169037E0
7.022458750E-1,-1.347892843E-2,-6.833295363E0,-8.092440628E0,1.059158640E1
7.122398750E-1,-2.940601662E-1,-7.319517657E0,-9.042178724E0,1.163713050E1
7.222338750E-1,-6.996391603E-1,-7.820075569E0,-9.659953430E0,1.244820377E1
7.322278749E-1,-1.012612913E0,-8.029456176E0,-9.954577085E0,1.282930849E1
7.422218751E-1,-9.903454001E-1,-8.243065488E0,-1.028224452E1,1.321565228E1
7.522158751E-1,-6.192753938E-1,-8.182257954E0,-1.034083012E1,1.320097022E1
7.622098750E-1,-2.162840485E-1,-7.629747530E0,-1.036086151E1,1.286884911E1
7.722038750E-1,1.439347681E-1,-7.116222832E0,-1.011382951E1,1.236733164E1
7.821978750E-1,6.406668475E-1,-6.632101443E0,-9.811520276E0,1.186006550E1
7.921918749E-1,1.148270363E0,-6.237473443E0,-9.472269502E0,1.139949513E1
8.021858751E-1,1.411545487E0,-5.951180316E0,-8.915775955E0,1.081203351E1
8.121798751E-1,1.384815086E0,-5.726287047E0,-8.305850551E0,1.018308546E1
8.221738751E-1,1.391760555E0,-5.587634361E0,-7.847862123E0,9.733837634E0
8.321678750E-1,1.564503824E0,-5.497156300E0,-7.586955267E0,9.498857291E0
8.421618750E-1,1.761834635E0,-5.287845275E0,-7.352541561E0,9.226333852E0
8.521558749E-1,1.967574034E0,-5.046956363E0,-7.104472852E0,8.934016488E0
8.621498751E-1,2.097928059E0,-4.766736154E0,-6.767092018E0,8.539122325E0
8.721438751E-1,2.016398284E0,-4.474575346E0,-6.337145666E0,8.015428982E0
8.821378751E-1,1.789153849E0,-4.107676013E0,-5.834845283E0,7.356595218E0
8.921318750E-1,1.574133896E0,-3.733709734E0,-5.518883969E0,6.846646344E0
9.021258750E-1,1.394411244E0,-3.256038408E0,-5.346158388E0,6.413078694E0
9.121198750E-1,1.401736198E0,-2.642843826E0,-5.262139161E0,6.053065043E0
9.221138749E-1,1.187762165E0,-1.829779719E0,-4.858949084E0,5.326186157E0
9.321078751E-1,7.838053711E-1,-6.000389314E-1,-4.038794643E0,4.157674800E0
9.421018751E-1,6.568163455E-1,8.054691589E-1,-2.889248418E0,3.070495839E0
9.520958751E-1,5.527352491E-1,2.197133381E0,-1.130607094E0,2.532031546E0
9.620898750E-1,8.946213636E-1,3.053500798E0,1.243303989E0,3.416140998E0
9.720838750E-1,1.349612217E0,3.769779453E0,4.011486391E0,5.667866735E0
9.820778749E-1,1.495480075E0,4.856594995E0,7.041928110E0,8.683992579E0
9.920718751E-1,1.190333916E0,6.481170774E0,1.027572137E1,1.220708479E1
1.002065875E0,6.162705097E-1,8.330935106E0,1.364154008E1,1.599612093E1
1.012058875E0,3.821833706E-1,9.587532156E0,1.626637741E1,1.888549367E1
1.022052875E0,5.500000678E-2,1.040223407E1,1.789052225E1,2.069493380E1
1.032046875E0,-6.762228888E-1,1.115128929E1,1.825139953E1,2.139911482E1
1.042040875E0,-1.579207817E0,1.236196582E1,1.795779096E1,2.185850755E1
1.052034875E0,-2.393577169E0,1.337926089E1,1.819366764E1,2.270998405E1
1.062028875E0,-2.677830349E0,1.359252989E1,1.914499442E1,2.363172562E1
1.072022875E0,-2.818318768E0,1.313081620E1,2.005133273E1,2.413332134E1
1.082016875E0,-3.497519352E0,1.236829835E1,2.030140645E1,2.402820321E1
1.092010875E0,-4.163038912E0,1.147805860E1,1.882658546E1,2.243918542E1
1.102004875E0,-4.273762665E0,1.058430584E1,1.558392431E1,1.931712386E1
1.111998875E0,-3.845090129E0,9.651860299E0,1.159068650E1,1.556557544E1
1.121992875E0,-3.068808809E0,8.541961119E0,7.468162649E0,1.175398403E1
1.131986875E0,-2.190952436E0,7.178476968E0,3.903225778E0,8.459667584E0
1.141980875E0,-1.262994196E0,5.421302125E0,1.398068678E0,5.739361210E0
1.151974875E0,-2.596396177E-1,2.982889822E0,-6.237809658E-2,2.994818099E0
1.161968875E0,3.756745425E-1,2.515396160E-1,-1.149457932E0,1.235174918E0
1.171962875E0,4.970392044E-1,-2.245986868E0,-2.478267510E0,3.381318505E0
1.181956875E0,2.858054326E-1,-4.561107121E0,-4.278889503E0,6.260533388E0
1.191950875E0,2.258398972E-1,-6.626605060E0,-6.296853672E0,9.144028896E0
1.201944875E0,2.644394508E-1,-8.057574266E0,-8.199680902E0,1.149909554E1
1.211938875E0,1.590785450E-1,-8.814968203E0,-9.844911386E0,1.321556849E1
1.221932875E0,9.353410810E-2,-9.001658689E0,-1.101985909E1,1.422940273E1
1.231926875E0,2.395226377E-1,-8.761566752E0,-1.155372157E1,1.450210002E1
1.241920875E0,4.922867702E-1,-8.321586578E0,-1.147074022E1,1.417988119E1
1.251914875E0,8.574767800E-1,-7.927408814E0,-1.100985801E1,1.359397110E1
1.261908875E0,1.062609092E0,-7.557426828E0,-1.039190321E1,1.289323430E1
1.271902875E0,9.189837145E-1,-7.205864156E0,-9.591871374E0,1.203216546E1
1.281896875E0,8.173018768E-1,-6.975836447E0,-8.666882204E0,1.115549746E1
1.291890875E0,7.520659536E-1,-6.783077136E0,-7.786987930E0,1.035436718E1
1.301883875E0,5.920566780E-1,-6.655217825E0,-6.973287646E0,9.657597838E0
1.311877875E0,5.173695712E-1,-6.741608682E0,-6.327832806E0,9.260584588E0
1.321871875E0,4.344104084E-1,-6.913027995E0,-5.796207467E0,9.031870762E0
1.331865875E0,2.959075209E-1,-7.043307468E0,-5.411159545E0,8.886866094E0
1.341859875E0,3.847032282E-1,-7.061417465E0,-5.165744888E0,8.757655704E0
1.351853875E0,6.685466641E-1,-7.040139447E0,-5.234538549E0,8.798347112E0
1.361847875E0,7.650931115E-1,-7.021234229E0,-5.501325949E0,8.952523933E0
1.371841875E0,7.474729657E-1,-6.911705355E0,-5.908206789E0,9.123447496E0
1.381835875E0,7.229715241E-1,-6.838784144E0,-6.346489516E0,9.357862233E0
1.391826042E0,7.425170119E-1,-6.710823677E0,-6.727918012E0,9.531598329E0
1.401820042E0,5.596304320E-1,-6.578530422E0,-7.018000134E0,9.635485178E0
1.411814042E0,2.503280729E-1,-6.502455223E0,-7.154165415E0,9.670918822E0
1.421808042E0,6.974434577E-2,-6.440950701E0,-7.230739381E0,9.683713245E0
1.431802042E0,2.383523905E-1,-6.379239771E0,-7.176719295E0,9.605040956E0
1.441796042E0,3.733503839E-1,-6.166245001E0,-6.892459829E0,9.255699348E0
1.451790042E0,4.595178043E-1,-5.901794733E0,-6.539079258E0,8.820538262E0
1.461784042E0,5.318984769E-1,-5.673828751E0,-6.254181277E0,8.461089300E0
1.471778042E0,3.036570185E-1,-5.433780668E0,-5.910221740E0,8.034233066E0
1.481772042E0,-9.099064238E-2,-4.928837929E0,-5.586448545E0,7.450512061E0
1.491766042E0,-5.764094924E-1,-4.286382710E0,-5.148427189E0,6.723959188E0
1.501760042E0,-9.198234478E-1,-3.318113619E0,-4.586406269E0,5.735074161E0
1.511754042E0,-9.416728116E-1,-1.669781188E0,-3.860318325E0,4.310101446E0
1.521748042E0,-8.797096480E-1,6.819256783E-1,-2.701534084E0,2.921848405E0
1.531742042E0,-6.724419330E-1,2.928871490E0,-8.381656194E-1,3.119773704E0
1.541736042E0,3.757211375E-1,4.180776733E0,1.971230882E0,4.637435893E0
1.551730042E0,1.859834261E0,4.333976122E0,5.650564435E0,7.360109438E0
1.561724042E0,2.218218149E0,4.557778301E0,9.745837333E0,1.098522554E1
1.571718042E0,1.098213007E0,5.712729108E0,1.332854799E1,1.454274861E1
1.581712042E0,-1.426638027E-1,7.085409175E0,1.506237373E1,1.664627521E1
1.591706042E0,-6.273712293E-1,8.383389308E0,1.451521818E1,1.677397895E1
1.601700042E0,-3.405225438E-1,9.760292820E0,1.285596081E1,1.614481341E1
1.611693042E0,-4.106938094E-2,1.119604271E1,1.203434983E1,1.643711151E1
1.621687042E0,3.709315735E-1,1.237985128E1,1.289949801E1,1.788282296E1
1.631681042E0,4.701208893E-1,1.325872755E1,1.472335918E1,1.981898523E1
1.641675042E0,2.292044947E-1,1.365333041E1,1.652663815E1,2.143818403E1
1.651669042E0,-3.095385135E-1,1.351122202E1,1.815270789E1,2.263116741E1
1.661663042E0,-1.534362305E0,1.295271469E1,1.937547295E1,2.335671290E1
1.671657042E0,-2.148617717E0,1.248567185E1,1.944303753E1,2.320647039E1
1.681651042E0,-1.725333537E0,1.215817515E1,1.832330742E1,2.205768786E1
1.691645042E0,-1.302790053E0,1.177278867E1,1.647138898E1,2.028798831E1
1.701639042E0,-1.186228294E0,1.108964911E1,1.391814847E1,1.783542295E1
1.711633042E0,-1.138266946E0,1.009586336E1,1.116296384E1,1.509416676E1
1.721627042E0,-1.178644894E0,8.896921023E0,8.831580727E0,1.259131548E1
1.731621042E0,-1.163761683E0,7.378034252E0,6.906025370E0,1.017265536E1
1.741615042E0,-1.168303070E0,5.669731023E0,5.363904687E0,7.891910759E0
1.751609042E0,-1.220216697E0,3.974324997E0,4.293296458E0,5.976335202E0
1.761603042E0,-9.855962185E-1,2.355094743E0,3.471555083E0,4.309241911E0
1.771597042E0,-5.804756827E-1,5.279965568E-1,2.516440473E0,2.635944809E0
1.781591042E0,-4.013626765E-1,-1.592445914E0,1.138481539E0,1.998278309E0
1.791585042E0,-4.256976186E-1,-3.845610239E0,-6.798423153E-1,3.928373982E0
1.801579042E0,-4.895307217E-1,-5.870690469E0,-2.756612517E0,6.504118655E0
1.811573042E0,-5.279415929E-1,-7.581882223E0,-4.908542243E0,9.047510559E0
1.821567042E0,-6.561420154E-1,-8.729997050E0,-6.933297368E0,1.116754150E1
1.831561042E0,-8.147962718E-1,-9.308036417E0,-8.695338264E0,1.276371194E1
1.841555042E0,-8.487635516E-1,-9.725289633E0,-1.020727270E1,1.412409551E1
1.851549042E0,-8.886691173E-1,-9.671742586E0,-1.093053936E1,1.462221010E1
1.861543042E0,-7.678485388E-1,-9.398357772E0,-1.109613601E1,1.456169477E1
1.871537042E0,-5.553606489E-1,-9.097964669E0,-1.099969438E1,1.428547034E1
1.881531042E0,-1.031411565E-1,-9.027460697E0,-1.095317510E1,1.419428510E1
1.891525042E0,3.266385495E-1,-8.827269575E0,-1.084796966E1,1.398948986E1
1.901518042E0,4.038249390E-1,-8.476142521E0,-1.045669036E1,1.346664174E1
1.911512042E0,3.443317124E-1,-8.215600532E0,-9.926729136E0,1.289009727E1
1.921506042E0,4.638525280E-1,-8.097290894E0,-9.318609352E0,1.235385605E1
1.931500042E0,7.291476457E-1,-7.939344735E0,-8.551423668E0,1.169152248E1
1.941494042E0,1.040998587E0,-7.832689767E0,-7.739799730E0,1.106070553E1
1.951488042E0,1.278750395E0,-7.785504491E0,-6.940951958E0,1.050838222E1
1.961482042E0,1.343075030E0,-7.900121028E0,-6.171751324E0,1.011465655E1
1.971476042E0,1.168441064E0,-8.005782554E0,-5.477030768E0,9.770142008E0
1.981470042E0,1.030538357E0,-8.122778322E0,-5.001282592E0,9.594496576E0
1.991464042E0,9.591130093E-1,-8.210870719E0,-4.770873059E0,9.544607141E0
2.001458042E0,9.597472130E-1,-8.167198450E0,-4.681438726E0,9.462563806E0
2.011452042E0,1.098493893E0,-7.989228501E0,-4.627158439E0,9.297583347E0
2.021446042E0,1.229770609E0,-7.786032495E0,-4.610478671E0,9.131875565E0
2.031440042E0,1.360218481E0,-7.562952447E0,-4.697150779E0,9.006201723E0
2.041434042E0,1.495134797E0,-7.387006220E0,-4.845708064E0,8.960143726E0
2.051428042E0,1.469016015E0,-7.270054890E0,-4.928126907E0,8.904950363E0
2.061422042E0,1.298156134E0,-7.188838819E0,-4.951739134E0,8.825210103E0
2.071416042E0,1.079380222E0,-7.097171434E0,-4.917060467E0,8.701286552E0
2.081410042E0,9.804649944E-1,-6.807523760E0,-4.997732162E0,8.501824399E0
2.091404042E0,7.692246810E-1,-6.006126017E0,-5.050339562E0,7.884870705E0
2.101398042E0,6.376397440E-1,-5.013085197E0,-4.987217115E0,7.099995928E0
2.111392042E0,8.565760164E-1,-4.400656600E0,-4.751387213E0,6.532624391E0
2.121386042E0,1.009642381E0,-3.700893990E0,-4.431336356E0,5.861120709E0
2.131380042E0,6.284308179E-1,-2.107078659E0,-3.925487882E0,4.499351162E0
2.141374042E0,-2.750479080E-2,2.329975104E-1,-3.285073342E0,3.293440635E0
2.151368042E0,-5.012966352E-1,2.576904191E0,-2.455413083E0,3.594549615E0
2.161362042E0,-2.801515771E-1,3.910618413E0,-7.361217660E-1,3.989147344E0
2.171356042E0,2.019090343E-1,4.401236644E0,2.286847796E0,4.964002830E0
2.181350042E0,5.993483752E-2,5.093699005E0,5.875520269E0,7.776316620E0
2.191344042E0,-9.143182211E-1,6.618153495E0,9.330245311E0,1.147560068E1
2.201338042E0,-1.642637243E0,8.147391007E0,1.170316705E1,1.435417557E1
2.211331042E0,-1.474931205E0,9.240270696E0,1.275588104E1,1.581994076E1
2.221325042E0,-8.763442831E-1,1.008482849E1,1.310838394E1,1.656204923E1
2.231319042E0,-6.513085607E-1,1.107581460E1,1.389946194E1,1.778462578E1
2.241313042E0,-4.519734708E-1,1.202691334E1,1.527358685E1,1.944565195E1
2.251307042E0,-2.361080099E-1,1.318694129E1,1.672230236E1,2.129757178E1
2.261301042E0,-3.634100077E-1,1.416454195E1,1.765079810E1,2.263442045E1
2.271295042E0,-7.476996184E-1,1.461868232E1,1.829725574E1,2.343191190E1
2.281289042E0,-1.218338352E0,1.476803775E1,1.878726995E1,2.392782480E1
2.291283042E0,-1.516334169E0,1.468785021E1,1.879698569E1,2.390311452E1
2.301277042E0,-1.774105748E0,1.435307840E1,1.804615759E1,2.312622136E1
2.311271042E0,-1.831240938E0,1.357992797E1,1.681637704E1,2.169235865E1
2.321265042E0,-1.640623608E0,1.255543030E1,1.555010168E1,2.005333234E1
2.331259042E0,-1.128771360E0,1.133112976E1,1.433779846E1,1.830959014E1
2.341253042E0,-7.779025338E-1,9.841104848E0,1.285812194E1,1.621060693E1
2.351247042E0,-6.047242322E-1,8.081175383E0,1.075412068E1,1.346559313E1
2.361241042E0,-3.450704350E-1,6.249581273E0,8.191067369E0,1.030873049E1
2.371235042E0,3.032029822E-2,4.261554263E0,5.383796915E0,6.866369731E0
2.381229042E0,4.141959992E-1,2.173625236E0,2.429991143E0,3.286496911E0
2.391223500E0,7.330625027E-1,-2.353001440E-1,-5.432519424E-1,9.422682546E-1
2.401217500E0,8.335999672E-1,-2.840258691E0,-3.316241341E0,4.445156349E0
2.411211500E0,6.898569877E-1,-5.292421306E0,-5.834873934E0,7.907678533E0
2.421205500E0,4.483318980E-1,-7.537621724E0,-7.862459697E0,1.090114743E1
2.431199500E0,1.818583471E-1,-9.440503918E0,-9.301862342E0,1.325446452E1
2.441193500E0,-1.214817524E-2,-1.071074252E1,-1.015352860E1,1.475853299E1
2.451187500E0,2.115259498E-2,-1.143143290E1,-1.047807713E1,1.550703731E1
2.461181500E0,6.532567799E-2,-1.140575778E1,-1.058239146E1,1.555900340E1
2.471175500E0,2.959882490E-1,-1.095891940E1,-1.056935919E1,1.522816066E1
2.481169500E0,6.632435319E-1,-1.044368498E1,-1.045301480E1,1.479107725E1
2.491163500E0,1.055237653E0,-1.014889760E1,-1.043881425E1,1.459734537E1
2.501157500E0,1.206590638E0,-9.836116004E0,-1.022652875E1,1.424032757E1
2.511151500E0,1.175518534E0,-9.350198935E0,-9.669269798E0,1.350195698E1
2.521145500E0,1.140211584E0,-8.888607452E0,-8.921175858E0,1.264495170E1
2.531139500E0,1.184378527E0,-8.541545967E0,-8.031275829E0,1.178397859E1
2.541132500E0,1.283353616E0,-8.262044966E0,-7.091703118E0,1.096360509E1
2.551126500E0,1.436018715E0,-8.015436307E0,-6.184266704E0,1.022519064E1
2.561120500E0,1.604823007E0,-7.901581078E0,-5.094697709E0,9.537629955E0
2.571114500E0,1.719191037E0,-7.885004806E0,-4.063808447E0,9.035676937E0
2.581108500E0,1.668184021E0,-7.905964150E0,-3.419566319E0,8.773855531E0
2.591102500E0,1.556185575E0,-8.042885476E0,-3.331763359E0,8.843662556E0
2.601096500E0,1.417667375E0,-8.163598904E0,-3.604911361E0,9.036012050E0
2.611090500E0,1.249536829E0,-8.147143670E0,-4.108520935E0,9.209627383E0
2.621084500E0,1.002770733E0,-8.004819517E0,-4.718446923E0,9.345930987E0
2.631078500E0,8.801091591E-1,-7.772758146E0,-5.374695724E0,9.490928060E0
2.641072500E0,9.091093022E-1,-7.484633671E0,-5.958874667E0,9.610120094E0
2.651066500E0,8.903061184E-1,-7.198155772E0,-6.323584803E0,9.622568070E0
2.661060500E0,8.228476685E-1,-6.984844667E0,-6.516786749E0,9.588203317E0
2.671054500E0,7.598114678E-1,-6.785658097E0,-6.584915582E0,9.485967662E0
2.681048500E0,7.182504822E-1,-6.656955033E0,-6.658343162E0,9.442693881E0
2.691042500E0,6.739015442E-1,-6.476333372E0,-6.675596541E0,9.325268169E0
2.701036500E0,5.683305041E-1,-6.048745202E0,-6.624373763E0,8.988472942E0
2.711030500E0,4.830275215E-1,-5.394804883E0,-6.533196959E0,8.486453784E0
2.721024500E0,5.529502805E-1,-4.627904543E0,-6.406306533E0,7.922374509E0
2.731018500E0,7.537748024E-1,-3.716847534E0,-6.099673866E0,7.182558967E0
2.741012500E0,7.212261303E-1,-2.180384617E0,-5.446875508E0,5.911234812E0
2.751006500E0,4.819549960E-1,3.896701455E-2,-4.627837300E0,4.653028812E0
2.761000500E0,4.395815398E-1,2.161096407E0,-3.474413787E0,4.115230342E0
2.770994500E0,5.584025167E-1,3.665687320E0,-1.645570207E0,4.056720129E0
2.780988500E0,6.205895555E-1,4.419996850E0,1.160685756E0,4.611799538E0
2.790982500E0,3.818329762E-1,4.809344230E0,4.882264856E0,6.863825352E0
2.800976500E0,-6.604313866E-1,6.054356775E0,8.649547548E0,1.057856693E1
2.810970500E0,-1.722354381E0,7.698447052E0,1.169053706E1,1.410323539E1
2.820964500E0,-1.979905665E0,9.212708675E0,1.329462712E1,1.629543303E1
2.830958500E0,-1.436922549E0,1.070360190E1,1.383442336E1,1.755058716E1
2.840952500E0,-9.650108034E-1,1.232019097E1,1.409294279E1,1.874378265E1
2.850946500E0,-1.110088629E0,1.346296261E1,1.484503155E1,2.007133829E1
2.860940500E0,-1.614940737E0,1.398339287E1,1.596234909E1,2.128238469E1
2.870934500E0,-2.638564834E0,1.441955890E1,1.752218158E1,2.284540546E1
2.880928500E0,-3.424270696E0,1.459634596E1,1.918468181E1,2.434812029E1
2.890922500E0,-3.479240078E0,1.451927264E1,2.046902273E1,2.533565237E1
2.900915500E0,-2.969772763E0,1.453132025E1,2.111192877E1,2.580101461E1
2.910909500E0,-2.260355962E0,1.431427277E1,2.094050946E1,2.546590957E1
2.920903500E0,-1.490478366E0,1.347087272E1,1.999537253E1,2.415576247E1
2.930897500E0,-7.811738317E-1,1.229330079E1,1.821261729E1,2.198715319E1
2.940891500E0,-2.191719883E-1,1.113983343E1,1.594245803E1,1.945008723E1
2.950885500E0,2.840282080E-1,1.000532858E1,1.336100705E1,1.669442366E1
2.960879500E0,5.599632847E-1,8.751173326E0,1.061872840E1,1.377149179E1
2.970873500E0,8.036015582E-1,7.113672277E0,8.219160901E0,1.089975755E1
2.980867500E0,1.007845386E0,5.327061381E0,6.457311210E0,8.431500658E0
2.990861500E0,1.221129593E0,3.365281938E0,4.768428923E0,5.962733803E0
3.000855500E0,1.181800490E0,1.154781237E0,2.800178366E0,3.251333724E0
3.010849500E0,9.484517080E-1,-1.247768923E0,5.304798692E-1,1.654659125E0
3.020843500E0,9.700706184E-1,-3.729206209E0,-1.870788581E0,4.283440891E0
3.030837500E0,1.113151035E0,-5.964085706E0,-4.121505262E0,7.334591274E0
3.040831500E0,1.005922602E0,-7.621770759E0,-6.005490425E0,9.755469492E0
3.050825500E0,8.750023471E-1,-8.837820291E0,-7.713688404E0,1.176323448E1
3.060819500E0,8.353436069E-1,-9.579979892E0,-9.152931420E0,1.327591681E1
3.070813500E0,9.801253442E-1,-9.961552813E0,-1.020421928E1,1.429402922E1
3.080807500E0,1.190981788E0,-9.894726155E0,-1.081058841E1,1.470349839E1
3.090801500E0,1.178578674E0,-9.746092272E0,-1.117694687E1,1.487613873E1
3.100795500E0,1.433328119E0,-9.737240757E0,-1.121965026E1,1.492477266E1
3.110789500E0,1.557000531E0,-9.796185368E0,-1.112477451E1,1.490470081E1
3.120783500E0,1.414043271E0,-9.722489401E0,-1.065091732E1,1.449028496E1
3.130777500E0,1.258130335E0,-9.609021258E0,-1.007805274E1,1.398153527E1
3.140771500E0,1.159183898E0,-9.432755772E0,-9.593416793E0,1.350385999E1
3.150765500E0,1.096637694E0,-9.283424317E0,-9.046538408E0,1.300862938E1
3.160759500E0,1.022292394E0,-9.177199119E0,-8.396528587E0,1.248069540E1
3.170753500E0,9.342574458E-1,-9.161940810E0,-7.678917936E0,1.199082053E1
3.180747500E0,8.590561129E-1,-9.231770598E0,-7.006632562E0,1.162137968E1
3.190741500E0,7.618385513E-1,-9.379840225E0,-6.489831669E0,1.143152290E1
3.200735500E0,6.587439533E-1,-9.449868234E0,-6.072260365E0,1.125194646E1
3.210729500E0,6.642799509E-1,-9.473223183E0,-5.744973578E0,1.109900657E1
3.220723500E0,8.554292312E-1,-9.348183399E0,-5.490160106E0,1.087484023E1
3.230717500E0,1.104486339E0,-9.101839619E0,-5.350228050E0,1.061547525E1
3.240711500E0,1.282321874E0,-8.834919487E0,-5.292642331E0,1.037844953E1
3.250705500E0,1.293373112E0,-8.503127421E0,-5.268633664E0,1.008635170E1
3.260699500E0,1.147057796E0,-8.231143600E0,-5.241554039E0,9.825546056E0
3.270693500E0,1.082810491E0,-8.008558812E0,-5.197237991E0,9.608370077E0
3.280687500E0,1.197886838E0,-7.790781603E0,-5.222646482E0,9.455540553E0
3.290681500E0,1.294510542E0,-7.550097928E0,-5.262346737E0,9.293655333E0
3.300675500E0,1.344106771E0,-7.313865738E0,-5.188964766E0,9.067778691E0
3.310669500E0,1.408284933E0,-7.019615720E0,-5.170241396E0,8.831175879E0
3.320663500E0,1.268213274E0,-6.460823048E0,-5.230452515E0,8.408818756E0
3.330657500E0,1.018898889E0,-5.540709870E0,-5.366819524E0,7.780769411E0
3.340651500E0,8.689311100E-1,-4.539549022E0,-5.374190524E0,7.088333400E0
3.350645500E0,6.181270006E-1,-3.425596552E0,-5.215289515E0,6.270250191E0
3.360639500E0,2.181275294E-1,-1.936114844E0,-4.995790887E0,5.362280009E0
3.370632500E0,-4.291765657E-1,8.911098182E-2,-4.538319352E0,4.559438105E0
3.380626500E0,-1.063765817E0,1.893619620E0,-3.417855424E0,4.049583766E0
3.390620500E0,-9.229238608E-1,3.084289312E0,-1.299465911E0,3.471777739E0
3.400614500E0,-2.801148127E-1,3.662621040E0,2.084373921E0,4.223490480E0
3.410608500E0,-1.148089464E-1,4.727783757E0,6.706017265E0,8.205838648E0
3.420602500E0,-1.352044366E-1,6.559988902E0,1.134658045E1,1.310712106E1
3.430596500E0,1.341539843E-1,8.337871658E0,1.496559061E1,1.713204610E1
3.440590500E0,5.747317435E-1,9.590204333E0,1.682748792E1,1.937696275E1
3.450584500E0,6.862875549E-1,1.059013200E1,1.741786140E1,2.039617078E1
3.460578500E0,4.325756983E-1,1.171019306E1,1.796777449E1,2.145126251E1
3.470572500E0,4.949280672E-1,1.289076929E1,1.881874668E1,2.281583032E1
3.480566500E0,7.459963976E-1,1.414544377E1,1.912168040E1,2.379682230E1
3.490560500E0,9.325015269E-1,1.530235398E1,1.856973716E1,2.408042223E1
3.500554500E0,9.558507746E-1,1.570811450E1,1.750565384E1,2.353946533E1
3.510548500E0,7.043000489E-1,1.581019869E1,1.619791704E1,2.264577086E1
3.520542500E0,2.407848322E-1,1.575576696E1,1.505383562E1,2.179266246E1
3.530536500E0,-1.068831553E-1,1.525640773E1,1.416798947E1,2.082069467E1
3.540530500E0,-2.569187620E-1,1.427582148E1,1.358200841E1,1.970624365E1
3.550524500E0,-3.626033843E-1,1.295107045E1,1.294030807E1,1.831156138E1
3.560518500E0,-6.580762012E-1,1.148692064E1,1.205106234E1,1.666164799E1
3.570512500E0,-7.784330955E-1,9.846359156E0,1.097198676E1,1.476283307E1
3.580506500E0,-6.243080923E-1,8.151947157E0,9.783934282E0,1.275026953E1
3.590500500E0,-4.918756744E-1,6.669863931E0,8.383879890E0,1.072466636E1
3.600494500E0,-3.702628713E-1,5.082544271E0,6.657262012E0,8.383823016E0
3.610488500E0,-2.403488492E-1,3.333644409E0,4.615249999E0,5.698375660E0
3.620482500E0,1.376346856E-2,1.531043133E0,2.427735872E0,2.870223680E0
3.630476500E0,3.770631100E-1,-4.114650571E-1,3.344665825E-1,6.506519630E-1
3.640470500E0,7.507130541E-1,-2.430698656E0,-1.569291524E0,2.989070413E0
3.650464500E0,9.000750616E-1,-4.426880193E0,-3.244411805E0,5.561799288E0
3.660458500E0,9.406978615E-1,-6.247554628E0,-4.621352738E0,7.827755261E0
3.670452500E0,9.253829073E-1,-7.839454996E0,-5.741525475E0,9.761070789E0
3.680446500E0,8.711933246E-1,-9.205962743E0,-6.686308640E0,1.141119849E1
3.690440500E0,8.312491672E-1,-1.021379936E1,-7.584533935E0,1.274903241E1
3.700434500E0,6.871229028E-1,-1.086307068E1,-8.445314831E0,1.377685686E1
3.710428500E0,4.427665912E-1,-1.105333790E1,-9.106654801E0,1.432841522E1
3.720422500E0,1.595137972E-1,-1.100706772E1,-9.454006308E0,1.451065883E1
3.730416500E0,3.211013094E-2,-1.100564450E1,-9.472362472E0,1.452070566E1
3.740410500E0,1.619328634E-1,-1.099964877E1,-9.304758468E0,1.440822770E1
3.750404500E0,3.487454101E-1,-1.086496517E1,-8.914494245E0,1.405835336E1
3.760398500E0,4.570883227E-1,-1.060030733E1,-8.384265806E0,1.352299369E1
3.770392500E0,6.091675314E-1,-1.046026184E1,-7.770674783E0,1.304498177E1
3.780386500E0,7.518449289E-1,-1.039468414E1,-7.112078910E0,1.261730540E1
3.790380500E0,7.884048640E-1,-1.042654211E1,-6.411421677E0,1.226542664E1
3.800374500E0,7.336131643E-1,-1.042327235E1,-5.748706441E0,1.192603960E1
3.810368500E0,6.285505396E-1,-1.041281519E1,-5.217951753E0,1.166399659E1
3.820362500E0,5.736212111E-1,-1.040373446E1,-4.874878653E0,1.150352876E1
3.830356500E0,5.629987206E-1,-1.032840712E1,-4.806962074E0,1.140613193E1
3.840350500E0,5.598236094E-1,-1.026019584E1,-5.027550623E0,1.143946181E1
3.850344500E0,5.388831221E-1,-1.016682750E1,-5.313882342E0,1.148442955E1
3.860338500E0,5.141305427E-1,-1.004706951E1,-5.599803001E0,1.151371919E1
3.870332500E0,4.484587826E-1,-9.780483255E0,-5.828596948E0,1.139436310E1
3.880326500E0,3.910059419E-1,-9.486582316E0,-6.064527422E0,1.126617160E1
3.890320500E0,3.584794892E-1,-9.205925905E0,-6.323952008E0,1.117452229E1
3.900314500E0,2.249575889E-1,-8.952680656E0,-6.579232088E0,1.111248810E1
3.910308500E0,7.580703132E-2,-8.631950938E0,-6.749002486E0,1.095743393E1
3.920302500E0,-8.828491643E-2,-8.259414303E0,-6.745073742E0,1.066403951E1
3.930296500E0,-2.861962093E-1,-7.800621298E0,-6.562587989E0,1.019799794E1
3.940290500E0,-2.889063207E-1,-7.079743808E0,-6.511582142E0,9.623250035E0
3.950284500E0,-2.955065846E-2,-6.227088203E0,-6.455821924E0,8.969678782E0
3.960278500E0,2.485726657E-1,-5.134953450E0,-6.146906505E0,8.013363519E0
3.970272500E0,4.858422980E-1,-3.640370631E0,-5.629646021E0,6.721700334E0
3.980266500E0,4.175302278E-1,-1.877802317E0,-4.942158471E0,5.303338890E0
3.990260500E0,1.298798159E-1,-1.833347690E-1,-4.117988162E0,4.124112863E0
4.000254500E0,6.025387622E-2,1.041321280E0,-2.878277872E0,3.061448031E0
4.010248500E0,1.058277328E-1,2.088344765E0,-1.080096506E0,2.353506284E0
4.020242500E0,1.895802531E-1,3.275392692E0,1.290807354E0,3.525666119E0
4.030236500E0,-5.165795758E-3,5.057945035E0,4.262948824E0,6.614799116E0
4.040230500E0,-3.354032334E-1,7.210992165E0,7.318480361E0,1.027964290E1
4.050224500E0,-4.870921404E-1,9.028372278E0,1.011828977E1,1.356939765E1
4.060217500E0,-3.124978259E-1,1.064588287E1,1.226494648E1,1.624381079E1
4.070212500E0,-3.454542316E-1,1.263591956E1,1.412371318E1,1.895428912E1
4.080205500E0,-1.733288674E-1,1.426604377E1,1.608533241E1,2.150088292E1
4.090199500E0,4.381850785E-1,1.532430794E1,1.840364583E1,2.395246542E1
4.100193500E0,1.064057593E0,1.620870164E1,2.096343054E1,2.652017435E1
4.110187500E0,9.748948637E-1,1.714786388E1,2.321078449E1,2.887455926E1
4.120181500E0,4.472874391E-1,1.763223319E1,2.458393526E1,3.025666185E1
4.130175500E0,4.421361883E-1,1.744894286E1,2.465023333E1,3.020422312E1
4.140169500E0,6.142346554E-1,1.731589532E1,2.381206069E1,2.944879877E1
4.150163500E0,8.156273805E-1,1.709040212E1,2.227466397E1,2.808750163E1
4.160157500E0,1.224050424E0,1.631856498E1,1.981276633E1,2.569707322E1
4.170151500E0,1.355966386E0,1.493142065E1,1.663336971E1,2.239318994E1
4.180145500E0,1.046448850E0,1.304334069E1,1.332096649E1,1.867275929E1
4.190139500E0,6.256397957E-1,1.091808947E1,1.028942374E1,1.501560334E1
4.200133500E0,2.544502138E-1,8.759085778E0,7.506748425E0,1.153852679E1
4.210127500E0,-1.218232115E-1,6.571292154E0,4.821198290E0,8.151114919E0
4.220121500E0,-1.455665616E-1,4.207664570E0,2.428624064E0,4.860436771E0
4.230115500E0,4.118079963E-1,1.884098014E0,5.370421994E-1,2.001955413E0
4.240109500E0,9.807543585E-1,-5.157811385E-1,-8.529970819E-1,1.398396695E0
4.250103500E0,1.081936625E0,-2.802357624E0,-1.970280710E0,3.592464500E0
4.260097500E0,6.914246263E-1,-5.169416939E0,-3.033113312E0,6.033300578E0
4.270091500E0,1.894945183E-1,-7.462828234E0,-4.302384201E0,8.616276646E0
4.280085500E0,-3.114989387E-1,-9.371027302E0,-5.703329124E0,1.097456821E1
4.290079500E0,-6.810432603E-1,-1.085788419E1,-6.915591415E0,1.289119365E1
4.300073500E0,-9.421062364E-1,-1.182783202E1,-7.744561118E0,1.416910023E1
4.310067500E0,-1.096127671E0,-1.228555557E1,-8.240466401E0,1.483380120E1
4.320061500E0,-1.107312152E0,-1.238392094E1,-8.650645655E0,1.514665997E1
4.330055500E0,-1.040950786E0,-1.219240358E1,-8.961569594E0,1.516733375E1
4.340049500E0,-8.934908775E-1,-1.185283238E1,-9.181748253E0,1.501973576E1
4.350043500E0,-6.823158337E-1,-1.136056932E1,-9.228607839E0,1.465248419E1
4.360037500E0,-4.939920741E-1,-1.070976019E1,-9.197790089E0,1.412594542E1
4.370031500E0,-3.246758585E-1,-1.017246422E1,-9.160439245E0,1.369299419E1
4.380025500E0,-4.164693967E-2,-9.815973516E0,-9.012466682E0,1.332590058E1
4.390019500E0,2.045060020E-1,-9.554638644E0,-8.572525685E0,1.283826853E1
4.400013500E0,4.338572618E-1,-9.378277264E0,-7.909133341E0,1.227577724E1
4.410007500E0,6.504215381E-1,-9.251537696E0,-7.151706076E0,1.171157110E1
4.420001500E0,9.438817435E-1,-9.104312991E0,-6.406141641E0,1.117220115E1
4.429995500E0,1.146063039E0,-8.942081409E0,-5.851429156E0,1.074772085E1
4.439989500E0,1.126884610E0,-8.913029518E0,-5.573942521E0,1.057264391E1
4.449983500E0,1.010036922E0,-8.893248387E0,-5.406789336E0,1.045674005E1
4.459977500E0,9.052125715E-1,-8.813846707E0,-5.312566134E0,1.033085972E1
4.469971500E0,8.151058088E-1,-8.708987419E0,-5.294609334E0,1.022466368E1
4.479965500E0,7.697757080E-1,-8.584428277E0,-5.243339778E0,1.008848728E1
4.489959500E0,7.770177039E-1,-8.389725351E0,-5.185489181E0,9.893459760E0
4.499953500E0,7.263770887E-1,-8.066445662E0,-5.125011429E0,9.584409812E0
4.509947500E0,7.314716215E-1,-7.792093719E0,-5.094454465E0,9.338374674E0
4.519941500E0,7.574451727E-1,-7.518828773E0,-5.009824789E0,9.066689237E0
4.529935500E0,7.123464755E-1,-7.224423804E0,-4.944506713E0,8.783386786E0
4.539929500E0,5.416420577E-1,-6.854987948E0,-4.780496407E0,8.374806373E0
4.549923500E0,3.354925496E-1,-6.330335414E0,-4.634403139E0,7.852604291E0
4.559917500E0,1.536502093E-1,-5.679539142E0,-4.647891496E0,7.340549612E0
4.569911500E0,8.032517485E-2,-5.034431042E0,-4.763473992E0,6.931279285E0
4.579905500E0,2.037354121E-1,-4.443623695E0,-4.865176368E0,6.592210612E0
4.589899500E0,9.339662544E-2,-3.449963654E0,-4.890565563E0,5.985699932E0
4.599893500E0,-4.597299486E-1,-1.931583837E0,-4.698297418E0,5.100624116E0
4.609887500E0,-1.073951375E0,-1.440566826E-1,-4.287236989E0,4.422049850E0
4.619881500E0,-1.341739818E0,1.236499584E0,-3.527013584E0,3.971022763E0
4.629875500E0,-1.022723626E0,2.002707614E0,-1.884275769E0,2.933819452E0
4.639870500E0,-4.060959975E-1,2.700423698E0,6.022211123E-1,2.796403471E0
4.649864500E0,-1.491836675E-1,3.771280434E0,3.467257379E0,5.125103473E0
4.659858500E0,-6.671445749E-1,5.453988646E0,6.635664151E0,8.615283673E0
4.669852500E0,-1.319611177E0,7.158951361E0,1.002738077E1,1.239113890E1
4.679846500E0,-1.063116484E0,8.417197325E0,1.299044794E1,1.551551370E1
4.689840500E0,-1.269034369E-1,1.005070882E1,1.495783019E1,1.802136333E1
4.699834500E0,7.046374333E-1,1.171191799E1,1.634863487E1,2.012320548E1
4.709828500E0,1.173180232E0,1.304584213E1,1.751699977E1,2.187271427E1
4.719822500E0,1.481411966E0,1.403274454E1,1.857262568E1,2.332498500E1
4.729816500E0,1.362670219E0,1.493334907E1,1.951954484E1,2.461451635E1
4.739810500E0,1.053626161E0,1.563740646E1,2.027992144E1,2.563033012E1
4.749804500E0,7.803882582E-1,1.589437170E1,2.090201373E1,2.627040608E1
4.759798500E0,3.436995188E-1,1.599841472E1,2.120360843E1,2.656426949E1
4.769792500E0,-2.307200930E-1,1.592667406E1,2.094311030E1,2.631208938E1
4.779786500E0,-8.663161620E-2,1.547223314E1,1.988442980E1,2.519500053E1
4.789780500E0,4.519436866E-1,1.465357383E1,1.807353425E1,2.327195994E1
4.799774500E0,8.906774166E-1,1.337209571E1,1.576179895E1,2.068914102E1
4.809768500E0,1.293661818E0,1.169946225E1,1.314860343E1,1.764757066E1
4.819762500E0,1.405235025E0,9.829553089E0,1.060139959E1,1.452530456E1
4.829756500E0,1.129908936E0,7.815151629E0,8.187697034E0,1.137504602E1
4.839750500E0,9.004519147E-1,5.747290830E0,5.953042070E0,8.323513406E0
4.849744500E0,9.353496326E-1,3.582453960E0,3.853139114E0,5.343738049E0
4.859738500E0,9.654692982E-1,1.259493175E0,1.999187590E0,2.552489969E0
4.869732500E0,1.037636365E0,-1.185602496E0,3.350653374E-1,1.610779713E0
4.879726500E0,1.101139612E0,-3.592837445E0,-1.388868669E0,4.006238327E0
4.889720500E0,1.165660128E0,-5.861746568E0,-3.200972840E0,6.779753940E0
4.899714500E0,1.191150626E0,-7.944136528E0,-4.986112576E0,9.454600130E0
4.909708500E0,9.326425910E-1,-9.601957237E0,-6.440810367E0,1.159963117E1
4.919702500E0,5.954066209E-1,-1.104354382E1,-7.707797919E0,1.348052365E1
4.929696500E0,2.612327646E-1,-1.223568935E1,-8.681080998E0,1.500471605E1
4.939690500E0,-1.984898749E-1,-1.299200915E1,-9.410000163E0,1.604306090E1
4.949684500E0,-6.477018519E-1,-1.309510492E1,-1.002830697E1,1.650661174E1
4.959678500E0,-8.229858090E-1,-1.283441616E1,-1.050725942E1,1.660728889E1
4.969672500E0,-8.329970462E-1,-1.240591349E1,-1.081132048E1,1.647680867E1
4.979666500E0,-6.975859105E-1,-1.195275194E1,-1.092308299E1,1.620705547E1
4.989660500E0,-5.967608361E-1,-1.152396977E1,-1.091078980E1,1.588091108E1
4.999654500E0,-6.167233034E-1,-1.102459884E1,-1.051193719E1,1.524542392E1
5.009648500E0,-3.657007275E-1,-1.070630799E1,-9.872006214E0,1.456761046E1
5.019642500E0,9.263232127E-3,-1.051831767E1,-9.211491870E0,1.398165494E1
5.029636500E0,1.298437824E-1,-1.029579369E1,-8.209270921E0,1.316861254E1
5.039630500E0,1.899965018E-1,-1.014096410E1,-7.182230296E0,1.242818102E1
5.049624500E0,3.135524809E-1,-1.008737905E1,-6.388527489E0,1.194432144E1
5.059618500E0,4.213404927E-1,-9.999332843E0,-5.701181442E0,1.151814460E1
5.069612500E0,5.052014789E-1,-9.694245595E0,-5.181269830E0,1.100359865E1
5.079606500E0,6.664745571E-1,-9.315134352E0,-4.807197717E0,1.050357397E1
5.089600500E0,8.293972810E-1,-8.910905809E0,-4.465247283E0,1.000152866E1
5.099594500E0,9.341746346E-1,-8.461480043E0,-4.288902276E0,9.532261510E0
5.109588500E0,9.033503795E-1,-8.018381549E0,-4.186556121E0,9.090530058E0
5.119582500E0,7.913546381E-1,-7.660927808E0,-4.150253683E0,8.748752064E0
5.129576500E0,5.977914444E-1,-7.406621289E0,-4.169559435E0,8.520599710E0
5.139571500E0,4.076653171E-1,-7.171878385E0,-4.289396950E0,8.366657443E0
5.149565500E0,1.224504898E-1,-6.881037294E0,-4.475323205E0,8.209274398E0
5.159559500E0,-2.548438776E-1,-6.483848798E0,-4.673730927E0,7.996811953E0
5.169553500E0,-4.964828418E-1,-5.887671953E0,-4.976379300E0,7.724993668E0
5.179547500E0,-5.827789009E-1,-5.120475744E0,-5.329279815E0,7.413509725E0
5.189541500E0,-6.709470923E-1,-4.477325876E0,-5.354470789E0,7.011916602E0
5.199535500E0,-7.297326596E-1,-3.744216011E0,-5.089866740E0,6.360692314E0
5.209529500E0,-7.640556693E-1,-2.826582053E0,-4.629091528E0,5.477393134E0
5.219523500E0,-8.110590240E-1,-1.771788788E0,-4.024501124E0,4.471427238E0
5.229517500E0,-7.423921739E-1,-6.665650427E-1,-3.371917359E0,3.516430259E0
5.239511500E0,-5.270346532E-1,1.701422811E-1,-2.588460628E0,2.647044077E0
5.249505500E0,-6.123909186E-1,1.181988332E0,-1.041901324E0,1.690466628E0
5.259499500E0,-1.104192370E0,2.487271053E0,1.616393185E0,3.165199047E0
5.269493500E0,-1.529595508E0,3.882072891E0,4.932619908E0,6.460719117E0
5.279487500E0,-1.519983563E0,5.165371251E0,8.550386957E0,1.010448056E1
5.289481500E0,-1.062506400E0,6.419367458E0,1.187775204E1,1.354319726E1
5.299475500E0,-2.093243452E-1,7.894949750E0,1.417035291E1,1.622260614E1
5.309469500E0,1.042585156E0,9.690734342E0,1.529544374E1,1.813692133E1
5.319463500E0,2.379212753E0,1.144195555E1,1.610770620E1,1.990068338E1
5.329457500E0,3.554166300E0,1.259113925E1,1.735362623E1,2.173286058E1
5.339451500E0,3.915426286E0,1.336535504E1,1.895954062E1,2.352503898E1
5.349445500E0,3.694757630E0,1.388883754E1,2.001825620E1,2.464308470E1
5.359439500E0,2.979001131E0,1.446709443E1,2.028807479E1,2.509536307E1
5.369433500E0,2.352222737E0,1.507882311E1,2.013331537E1,2.526369423E1
5.379427500E0,2.092781486E0,1.562565940E1,1.965129898E1,2.519354119E1
5.389420917E0,2.524595000E0,1.585022639E1,1.872931820E1,2.466557554E1
5.399415917E0,3.319121387E0,1.578397159E1,1.738440363E1,2.371429560E1
5.409409917E0,3.943872698E0,1.533046389E1,1.579736523E1,2.236367597E1
5.419403917E0,3.916510068E0,1.430374895E1,1.395384689E1,2.036286149E1
5.429397917E0,3.221585737E0,1.259170526E1,1.210031695E1,1.775802146E1
5.439391917E0,2.269341671E0,1.050660687E1,1.029081537E1,1.488084610E1
5.449385917E0,1.287889593E0,8.256878366E0,8.427208343E0,1.186813129E1
5.459379917E0,4.715524704E-1,5.932444668E0,6.584639009E0,8.875456740E0
5.469373917E0,-1.069664415E-1,3.450707420E0,4.548673017E0,5.710450922E0
5.479367917E0,-5.236264209E-1,8.914080262E-1,2.529996657E0,2.733070798E0
5.489361917E0,-5.319329754E-1,-1.734098806E0,7.095964569E-1,1.947711090E0
5.499355917E0,-1.931384118E-1,-4.146705008E0,-1.066641478E0,4.286045836E0
5.509349917E0,1.039592916E-1,-6.304037561E0,-2.813975456E0,6.904357680E0
5.519343917E0,1.706700288E-1,-8.336896927E0,-4.651951218E0,9.548488298E0
5.529337917E0,-8.294597000E-2,-1.019260203E1,-6.477059011E0,1.207676735E1
5.539331917E0,-4.295436978E-1,-1.181185743E1,-8.121524679E0,1.434097789E1
5.549325917E0,-8.667935872E-1,-1.286971814E1,-9.362326645E0,1.593844837E1
5.559319917E0,-1.390220106E0,-1.341068265E1,-1.033261712E1,1.698652695E1
5.569313917E0,-1.781479233E0,-1.343746992E1,-1.102676582E1,1.747366105E1
5.579307917E0,-1.895639102E0,-1.326004435E1,-1.154097698E1,1.768096076E1
5.589301917E0,-1.529095864E0,-1.272343367E1,-1.179259904E1,1.741520286E1
5.599296917E0,-8.294788496E-1,-1.222764358E1,-1.182963764E1,1.703360295E1
5.609290917E0,-4.874733058E-1,-1.167177217E1,-1.170325358E1,1.653584108E1
5.619284917E0,-4.498154828E-1,-1.130867996E1,-1.130652936E1,1.599769304E1
5.629278917E0,-3.631815277E-1,-1.094549654E1,-1.029080836E1,1.502785853E1
5.639272917E0,-3.681592624E-1,-1.073939622E1,-9.085917066E0,1.407210223E1
5.649266917E0,-3.296465399E-1,-1.060912844E1,-7.857227023E0,1.320599446E1
5.659260917E0,-1.962007265E-1,-1.047900216E1,-6.749495407E0,1.246610081E1
5.669254917E0,-5.938004639E-2,-1.032546597E1,-5.838909683E0,1.186219372E1
5.679248917E0,7.494478628E-2,-1.018410252E1,-5.138044288E0,1.140706185E1
5.689242917E0,1.784890352E-1,-9.990636864E0,-4.517089282E0,1.096580042E1
5.699236917E0,2.355775578E-1,-9.728929524E0,-4.144437457E0,1.057751995E1
5.709230917E0,2.540888924E-1,-9.528118597E0,-4.151859328E0,1.039651581E1
5.719224917E0,2.001388263E-1,-9.316167555E0,-4.316973588E0,1.026972709E1
5.729218917E0,2.135549337E-2,-8.913707795E0,-4.549096355E0,1.000744325E1
5.739212917E0,-1.373418132E-1,-8.467525479E0,-4.834743365E0,9.751543156E0
5.749206917E0,-2.743594714E-1,-7.984917349E0,-5.153604314E0,9.507566230E0
5.759200917E0,-3.957666718E-1,-7.494450561E0,-5.440500289E0,9.269437085E0
5.769195917E0,-5.292002061E-1,-6.878514220E0,-5.744176018E0,8.977169312E0
5.779189917E0,-6.356648469E-1,-6.049916984E0,-6.097457771E0,8.613045721E0
5.789183917E0,-6.646684983E-1,-5.350833237E0,-6.200686271E0,8.217159531E0
5.799177917E0,-6.166545986E-1,-4.727855678E0,-6.196589127E0,7.818605951E0
5.809171917E0,-5.862096451E-1,-3.825934358E0,-6.135686867E0,7.254520576E0
5.819165917E0,-7.375033168E-1,-2.596016985E0,-6.014333169E0,6.592072420E0
5.829159917E0,-1.055251029E0,-1.313268263E0,-5.815650043E0,6.054751332E0
5.839153917E0,-1.185895514E0,-1.184482169E-1,-5.148307321E0,5.284453276E0
5.849147917E0,-1.103021465E0,1.009857997E0,-3.858554220E0,4.138225489E0
5.859141917E0,-8.324041385E-1,1.917678573E0,-1.739659508E0,2.719706411E0
5.869135917E0,-6.793162121E-1,2.842245575E0,1.557582475E0,3.311479064E0
5.879129917E0,-1.010742096E0,3.835851821E0,5.675013397E0,6.923953772E0
5.889123917E0,-1.483731703E0,4.697228547E0,9.668910195E0,1.085141650E1
5.899117917E0,-1.717853048E0,5.610721507E0,1.319784868E1,1.444349074E1
5.909111917E0,-1.107297607E0,6.905069350E0,1.554455384E1,1.704521179E1
5.919105917E0,2.947883090E-1,8.718660468E0,1.732428724E1,1.939672315E1
5.929100917E0,1.701824222E0,1.068058024E1,1.939732633E1,2.220872056E1
5.939094917E0,2.516987772E0,1.201188015E1,2.194351042E1,2.514235752E1
5.949088917E0,2.638329191E0,1.255517185E1,2.441285976E1,2.757863018E1
5.959082917E0,2.620482027E0,1.265428918E1,2.571598895E1,2.878037610E1
5.969076917E0,2.611445448E0,1.310170642E1,2.607294977E1,2.929629786E1
5.979070917E0,2.761139431E0,1.385120136E1,2.529746397E1,2.897311431E1
5.989064917E0,2.898824403E0,1.443445059E1,2.330845872E1,2.756883738E1
5.999058917E0,3.125663041E0,1.454164994E1,2.025824698E1,2.513216908E1
6.009052917E0,3.092441500E0,1.422202826E1,1.718553515E1,2.252047737E1
6.019046917E0,2.755597732E0,1.335094633E1,1.467951442E1,2.003320320E1
6.029040917E0,2.261298826E0,1.184661328E1,1.266155727E1,1.748630181E1
6.039034917E0,1.648308896E0,1.010216198E1,1.101251498E1,1.503482907E1
6.049028917E0,1.033605221E0,8.192822703E0,9.455200310E0,1.255354518E1
6.059022917E0,4.960349451E-1,6.183897745E0,7.755232286E0,9.931277350E0
6.069016917E0,9.440738976E-2,4.026490932E0,5.879595194E0,7.126793221E0
6.079011917E0,-7.965020517E-2,1.665890450E0,3.980239456E0,4.315534877E0
6.089005917E0,1.383713617E-1,-6.213227963E-1,2.003233863E0,2.101935908E0
6.098999917E0,6.189043880E-1,-2.725960827E0,-1.798814034E-1,2.801118061E0
6.108993917E0,1.117970603E0,-4.859002878E0,-2.975183777E0,5.806159294E0
6.118987917E0,1.066564002E0,-6.897338746E0,-5.942107192E0,9.166213964E0
6.128981917E0,4.906268553E-1,-8.764136603E0,-8.471263604E0,1.219889799E1
6.138975917E0,2.364584774E-2,-1.040643471E1,-1.055560420E1,1.482279401E1
6.148969917E0,-1.317425926E-1,-1.158650808E1,-1.177401659E1,1.651944285E1
6.158963917E0,-2.737258525E-1,-1.221971943E1,-1.230892338E1,1.734664416E1
6.168957917E0,-6.176744261E-1,-1.230648743E1,-1.254075496E1,1.758128805E1
6.178951917E0,-8.878773312E-1,-1.194586392E1,-1.243267386E1,1.726451187E1
6.188945917E0,-7.484001879E-1,-1.158009953E1,-1.213006407E1,1.678681811E1
6.198939917E0,-3.873422228E-1,-1.119398332E1,-1.202765711E1,1.643532269E1
6.208934917E0,-2.824959451E-1,-1.065156636E1,-1.173617809E1,1.585161020E1
6.218928917E0,-5.203295414E-1,-1.014186574E1,-1.114002755E1,1.507409690E1
6.228922917E0,-6.197113037E-1,-1.001320010E1,-1.029715259E1,1.437635453E1
6.238916917E0,-6.721666753E-1,-1.013855622E1,-9.070499713E0,1.362042933E1
6.248910917E0,-8.284427230E-1,-1.023853542E1,-7.383135948E0,1.265008384E1
6.258904917E0,-1.008011885E0,-1.016678540E1,-5.613508875E0,1.165723360E1
6.268898917E0,-1.044112010E0,-1.000687809E1,-4.306943275E0,1.094429255E1
6.278892917E0,-1.085721820E0,-9.880145538E0,-3.760302871E0,1.062713251E1
6.288886917E0,-1.158520970E0,-9.780788480E0,-3.941806877E0,1.060866795E1
6.298880917E0,-1.148230017E0,-9.646235862E0,-4.591626663E0,1.074482824E1
6.308874917E0,-1.143594929E0,-9.382214195E0,-5.447446196E0,1.090909816E1
6.318868917E0,-1.176765160E0,-9.030242803E0,-6.306277630E0,1.107696704E1
6.328862917E0,-1.169739877E0,-8.595383620E0,-7.074819868E0,1.119383701E1
6.338857917E0,-1.182200001E0,-8.134549937E0,-7.667732213E0,1.124111279E1
6.348851917E0,-1.209049830E0,-7.681353301E0,-8.064218457E0,1.120252692E1
6.358845917E0,-1.266825584E0,-7.201606214E0,-8.194388587E0,1.098253083E1
6.368839917E0,-1.168383615E0,-6.729794383E0,-8.136505246E0,1.062346320E1
6.378833917E0,-1.113897944E0,-6.116285221E0,-8.019537544E0,1.014705356E1
6.388827917E0,-1.041265001E0,-5.436434135E0,-7.849667158E0,9.605015533E0
6.398826000E0,-9.592810437E-1,-4.766447302E0,-7.458719396E0,8.903467584E0
6.408820000E0,-9.698583645E-1,-4.037605319E0,-7.025972813E0,8.161321947E0
6.418814000E0,-1.114769764E0,-2.797663479E0,-6.617108597E0,7.270196610E0
6.428808000E0,-1.154800533E0,-1.057110516E0,-6.162589322E0,6.358345230E0
6.438802000E0,-9.187868826E-1,8.169665390E-1,-5.126618829E0,5.271984852E0
6.448796000E0,-4.028756435E-1,2.353632939E0,-3.038953511E0,3.864859019E0
6.458791000E0,3.114189050E-1,2.963076532E0,4.973056912E-2,2.979811638E0
6.468785000E0,4.312380016E-1,3.155471562E0,3.943946958E0,5.069288372E0
6.478779000E0,-9.395686179E-2,3.727856086E0,8.285276538E0,9.085788145E0
6.488773000E0,-6.230161500E-1,4.488599893E0,1.241241793E1,1.321377301E1
6.498767000E0,-5.990762604E-1,5.211909240E0,1.547870951E1,1.634360237E1
6.508761000E0,1.599478798E-1,5.970086703E0,1.692689994E1,1.794958106E1
6.518755000E0,1.052381288E0,7.058264061E0,1.733233301E1,1.874396878E1
6.528749000E0,1.526718824E0,8.317832665E0,1.814938784E1,2.002292410E1
6.538743000E0,1.563757427E0,9.272005874E0,2.003585398E1,2.213257497E1
6.548737000E0,1.117461968E0,9.927116221E0,2.193995532E1,2.410721877E1
6.558731000E0,5.665069038E-1,1.021792164E1,2.310549017E1,2.527034880E1
6.568725000E0,6.864718884E-2,1.051905910E1,2.321737547E1,2.548924951E1
6.578720000E0,-2.093162870E-1,1.085945943E1,2.271911317E1,2.518193352E1
6.588714000E0,3.264602825E-1,1.127418139E1,2.193907823E1,2.466854062E1
6.598708000E0,1.206580844E0,1.165122272E1,2.121227634E1,2.423153928E1
6.608702000E0,2.135938177E0,1.169779462E1,2.042082530E1,2.363071596E1
6.618696000E0,2.897179873E0,1.138590180E1,1.947880378E1,2.274766378E1
6.628690000E0,3.126516150E0,1.061755428E1,1.833879202E1,2.142005730E1
6.638684000E0,2.909049721E0,9.491462402E0,1.680315765E1,1.951657080E1
6.648678000E0,2.630138119E0,8.187799945E0,1.494651232E1,1.724401128E1
6.658672000E0,2.574262126E0,6.856034600E0,1.281745105E1,1.476208276E1
6.668666000E0,2.732035500E0,5.378291761E0,1.049542816E1,1.210553809E1
6.678660000E0,2.901087860E0,3.764408201E0,7.988828552E0,9.295615176E0
6.688655000E0,2.925575414E0,1.952908047E0,5.396111151E0,6.441339682E0
6.698649000E0,2.910042871E0,-9.795372605E-2,2.830279832E0,4.060594584E0
6.708643000E0,2.805663932E0,-2.404499037E0,3.938503200E-1,3.715976829E0
6.718637000E0,2.505196862E0,-4.687260214E0,-1.864593456E0,5.632328860E0
6.728631000E0,2.284170063E0,-6.916068547E0,-4.042125801E0,8.329959065E0
6.738625000E0,2.076984502E0,-8.876783797E0,-5.970098398E0,1.089739556E1
6.748619000E0,1.794851669E0,-1.057328735E1,-7.761123941E0,1.323823790E1
6.758613000E0,1.413832479E0,-1.188018097E1,-9.491968186E0,1.527203596E1
6.768607000E0,1.022011143E0,-1.279627828E1,-1.091862039E1,1.685246320E1
6.778601000E0,4.522733599E-1,-1.332233590E1,-1.211495838E1,1.801281215E1
6.788595000E0,-2.729322392E-1,-1.358934550E1,-1.305636711E1,1.884710920E1
6.798590000E0,-6.805176687E-1,-1.374979310E1,-1.360554696E1,1.935538227E1
6.808584000E0,-9.574812707E-1,-1.379561422E1,-1.382580222E1,1.955475771E1
6.818578000E0,-1.195934233E0,-1.359740296E1,-1.382986136E1,1.943153857E1
6.828572000E0,-1.423014946E0,-1.322228069E1,-1.338850767E1,1.887076617E1
6.838566000E0,-1.721777845E0,-1.285260334E1,-1.279510650E1,1.821726330E1
6.848560000E0,-1.928738289E0,-1.254389959E1,-1.199497468E1,1.746278517E1
6.858554000E0,-2.012560757E0,-1.225257143E1,-1.107682500E1,1.663946993E1
6.868548000E0,-1.892960054E0,-1.204282946E1,-1.012278862E1,1.584562680E1
6.878542000E0,-1.628407752E0,-1.182190996E1,-9.169681354E0,1.504966189E1
6.888536000E0,-1.286052690E0,-1.158262786E1,-8.258431386E0,1.428330805E1
6.898530000E0,-9.884902248E-1,-1.132709752E1,-7.440126420E0,1.358807317E1
6.908525000E0,-7.870703101E-1,-1.099928039E1,-6.911127065E0,1.301412026E1
6.918519000E0,-6.569563133E-1,-1.067721576E1,-6.652331640E0,1.259714429E1
6.928513000E0,-6.606228098E-1,-1.028726377E1,-6.481640305E0,1.217685836E1
6.938507000E0,-6.010259414E-1,-9.828088946E0,-6.444423362E0,1.176788668E1
6.948501000E0,-4.100237185E-1,-9.307735285E0,-6.508254492E0,1.136483313E1
6.958495000E0,-2.134727803E-1,-8.736792684E0,-6.529949416E0,1.090950761E1
6.968489000E0,-1.606054723E-2,-8.184007441E0,-6.420835694E0,1.040218086E1
6.978483000E0,1.257823795E-2,-7.597943355E0,-6.255742484E0,9.841911169E0
6.988477000E0,-1.581721535E-1,-6.887901340E0,-6.172937724E0,9.250587195E0
6.998471000E0,-4.238915598E-1,-6.092936119E0,-6.107422596E0,8.637370281E0
7.008465000E0,-5.351877549E-1,-5.352162309E0,-6.136637625E0,8.160293417E0
7.018460000E0,-7.688068244E-1,-4.483632683E0,-6.031085442E0,7.554337666E0
7.028454000E0,-1.181143701E0,-3.256983318E0,-5.553684842E0,6.545720442E0
7.038448000E0,-1.430398518E0,-1.803460817E0,-4.593119457E0,5.137631476E0
7.048442000E0,-1.456380036E0,-3.260664725E-1,-2.968767042E0,3.322790981E0
7.058436000E0,-1.119932709E0,9.001466900E-1,-6.847019362E-1,1.591643829E0
7.068430000E0,-5.359063777E-1,1.699084509E0,2.403830116E0,2.992070026E0
7.078424000E0,-3.056778894E-1,2.593673421E0,6.369131690E0,6.883779432E0
7.088418000E0,-5.256418099E-1,3.893809422E0,1.085990265E1,1.154883270E1
7.098412000E0,-6.182888954E-1,5.192043325E0,1.542530105E1,1.628740334E1
7.108406000E0,-2.759466250E-1,6.399117966E0,1.913650075E1,2.017995338E1
7.118400000E0,6.038000067E-1,7.584435702E0,2.107872126E1,2.240983555E1
7.128395000E0,1.517558869E0,9.004644277E0,2.158894696E1,2.344076011E1
7.138389000E0,2.162536576E0,1.066782864E1,2.167947589E1,2.425858213E1
7.148383000E0,2.576083242E0,1.177942877E1,2.229897903E1,2.535025864E1
7.158377000E0,2.339513960E0,1.249330364E1,2.312555547E1,2.638839285E1
7.168371000E0,2.041813353E0,1.306674007E1,2.368113218E1,2.712387729E1
7.178365000E0,1.976663238E0,1.351289198E1,2.394036263E1,2.756168374E1
7.188359000E0,2.160980193E0,1.372855133E1,2.395314699E1,2.769289092E1
7.198353000E0,2.919000220E0,1.387169351E1,2.334559088E1,2.731228764E1
7.208347000E0,3.797043558E0,1.393930135E1,2.203937669E1,2.635252904E1
7.218341000E0,4.493011909E0,1.349295766E1,2.004587143E1,2.457812083E1
7.228335000E0,4.639568861E0,1.247116725E1,1.783619694E1,2.225276461E1
7.238330000E0,4.368237882E0,1.104402446E1,1.575252410E1,1.972800025E1
7.248324000E0,3.803529874E0,9.440429658E0,1.360182346E1,1.698817686E1
7.258318000E0,3.201292390E0,7.567365925E0,1.115818316E1,1.385706864E1
7.268312000E0,2.614850281E0,5.553790677E0,8.549806913E0,1.052526632E1
7.278306000E0,2.136660308E0,3.452054034E0,6.125631995E0,7.348834034E0
7.288300000E0,1.584234376E0,1.268064609E0,3.964654287E0,4.453792769E0
7.298294000E0,1.148964719E0,-1.145582982E0,2.027393389E0,2.596691019E0
7.308288000E0,1.093906167E0,-3.651948702E0,2.266158593E-1,3.818993948E0
7.318282000E0,1.132426162E0,-6.017146849E0,-1.539840853E0,6.313442410E0
7.328276000E0,1.086267657E0,-8.180387430E0,-3.292572981E0,8.884804599E0
7.338270000E0,8.646950215E-1,-1.003171121E1,-5.137216907E0,1.130371288E1
7.348265000E0,5.312978947E-1,-1.168275909E1,-6.985309521E0,1.362217628E1
7.358259000E0,5.284041077E-2,-1.297090772E1,-8.646622771E0,1.558882050E1
7.368253000E0,-6.541891184E-1,-1.392494995E1,-9.921957808E0,1.711074052E1
7.378247000E0,-1.459378196E0,-1.462372964E1,-1.096237394E1,1.833458196E1
7.388241000E0,-2.336355586E0,-1.488839684E1,-1.197661793E1,1.924999468E1
7.398235000E0,-2.886848428E0,-1.490507310E1,-1.293161209E1,1.994296089E1
7.408229000E0,-2.995390584E0,-1.483040065E1,-1.358645580E1,2.033482062E1
7.418223000E0,-2.923742020E0,-1.451224897E1,-1.363823758E1,2.012846645E1
7.428217000E0,-3.062675372E0,-1.423384900E1,-1.312920588E1,1.960506273E1
7.438211000E0,-3.117846191E0,-1.394325641E1,-1.198610679E1,1.864945362E1
7.448206000E0,-3.171077780E0,-1.370190323E1,-1.075510184E1,1.770508689E1
7.458200000E0,-3.231211423E0,-1.343418144E1,-9.727951285E0,1.689825419E1
7.468194000E0,-3.306230030E0,-1.299280203E1,-8.754705044E0,1.601214920E1
7.478188000E0,-3.174488753E0,-1.244847420E1,-7.815935740E0,1.503764411E1
7.488182000E0,-2.803898657E0,-1.196417506E1,-6.907751468E0,1.409682102E1
7.498176000E0,-2.524778017E0,-1.165490764E1,-6.120877039E0,1.340434675E1
7.508170000E0,-2.335713269E0,-1.134925028E1,-5.528796753E0,1.283856036E1
7.518164000E0,-2.140723099E0,-1.101608412E1,-5.088137718E0,1.232176733E1
7.528158000E0,-2.008517992E0,-1.049348221E1,-4.781393369E0,1.170508590E1
7.538152000E0,-1.931255954E0,-1.001111615E1,-4.632509226E0,1.119876502E1
7.548146000E0,-1.816162869E0,-9.520365774E0,-4.604834939E0,1.073034561E1
7.558141000E0,-1.728838651E0,-8.910832719E0,-4.527731214E0,1.014357791E1
7.568135000E0,-1.586033565E0,-8.259213744E0,-4.457178125E0,9.518222049E0
7.578129000E0,-1.444999892E0,-7.637589816E0,-4.418081303E0,8.940930896E0
7.588123000E0,-1.240189908E0,-7.038189985E0,-4.397683291E0,8.391293560E0
7.598117000E0,-9.730652699E-1,-6.303337065E0,-4.292523456E0,7.687956282E0
7.608111000E0,-7.381584974E-1,-5.437477278E0,-4.090348958E0,6.844120960E0
7.618105000E0,-5.854565603E-1,-4.606913624E0,-3.969729086E0,6.109432178E0
7.628099000E0,-3.867327967E-1,-3.693223028E0,-3.874560388E0,5.366719370E0
7.638093000E0,-2.394347101E-1,-2.667743610E0,-3.646761053E0,4.524715585E0
7.648087000E0,-2.988833517E-2,-1.584450431E0,-3.111845486E0,3.492128120E0
7.658082000E0,3.850181007E-1,-3.961628938E-1,-2.006000181E0,2.080677943E0
7.668076000E0,8.642320682E-1,8.345152026E-1,-1.555891460E-1,1.211412677E0
7.678070000E0,1.199238056E0,1.976388127E0,2.620533775E0,3.494492697E0
7.688064000E0,1.256989982E0,3.205737736E0,6.141797208E0,7.041196715E0
7.698058000E0,1.290007162E0,4.490741728E0,1.039172077E1,1.139380272E1
7.708052000E0,1.667457066E0,5.881532961E0,1.483200746E1,1.604248386E1
7.718046000E0,2.185216171E0,7.246728593E0,1.831938043E1,1.982145162E1
7.728040000E0,2.422375876E0,8.638528470E0,2.015690070E1,2.206337972E1
7.738034000E0,2.478053209E0,1.035840100E1,2.026440526E1,2.289286657E1
7.748028000E0,2.601675335E0,1.241044391E1,1.997063413E1,2.365616326E1
7.758022000E0,3.316619655E0,1.366658254E1,2.111158495E1,2.536679845E1
7.768017000E0,3.804880874E0,1.416683757E1,2.378475185E1,2.794442388E1
7.778011000E0,3.941637600E0,1.408861468E1,2.644443742E1,3.022141362E1
7.788005000E0,3.866697637E0,1.366744910E1,2.737453062E1,3.084015957E1
7.797999000E0,4.068257008E0,1.341671698E1,2.653688657E1,3.001275327E1
7.807993000E0,4.512561783E0,1.348500310E1,2.483847625E1,2.862094382E1
7.817987000E0,4.613518639E0,1.329199119E1,2.192337963E1,2.604987828E1
7.827981000E0,4.405506865E0,1.249503090E1,1.861783752E1,2.285078034E1
7.837975000E0,3.901362855E0,1.131447806E1,1.566649051E1,1.971489211E1
7.847969000E0,3.337520235E0,9.892763829E0,1.333152773E1,1.693326457E1
7.857963000E0,2.624267807E0,8.275531569E0,1.136222643E1,1.429934941E1
7.867957000E0,1.977682115E0,6.385412677E0,9.420620461E0,1.155131211E1
7.877952000E0,1.656229096E0,4.408127587E0,7.667199531E0,8.997812640E0
7.887946000E0,1.807608247E0,2.579124963E0,6.098148912E0,6.863435969E0
7.897940000E0,2.059578218E0,8.175576925E-1,4.451880548E0,4.972876776E0
7.907934000E0,2.011651222E0,-1.007446021E0,2.657098169E0,3.481645991E0
7.917928000E0,1.785558104E0,-3.050952582E0,6.941738409E-1,3.602555582E0
7.927922000E0,1.387675252E0,-5.205209500E0,-1.433331481E0,5.574431602E0
7.937916000E0,8.272354192E-1,-7.143201885E0,-3.455940678E0,7.978294152E0
7.947910000E0,2.957790649E-1,-8.798402456E0,-5.295723814E0,1.027346396E1
7.957904000E0,-1.087228355E-1,-1.018720505E1,-6.924452870E0,1.231823912E1
7.967898000E0,-3.182797354E-1,-1.141266100E1,-8.301145881E0,1.411591853E1
7.977893000E0,-3.914126158E-1,-1.232764851E1,-9.426315649E0,1.552351598E1
7.987887000E0,-5.327339709E-1,-1.288561906E1,-1.032757682E1,1.652216169E1
7.997881000E0,-7.742149141E-1,-1.306881233E1,-1.095375280E1,1.706979686E1
8.007875000E0,-9.764595786E-1,-1.302381683E1,-1.164484107E1,1.749787421E1
8.017869000E0,-1.035104520E0,-1.296750581E1,-1.221478672E1,1.784456956E1
8.027863000E0,-1.065094597E0,-1.276943489E1,-1.263355261E1,1.799443095E1
8.037857000E0,-1.277688833E0,-1.254671678E1,-1.275635350E1,1.793814776E1
8.047851000E0,-1.553753718E0,-1.228580115E1,-1.261068532E1,1.767440083E1
8.057845000E0,-1.741126867E0,-1.196228992E1,-1.228071759E1,1.723206103E1
8.067839000E0,-1.757237408E0,-1.165946729E1,-1.170092756E1,1.661152512E1
8.077834000E0,-1.623593739E0,-1.141765452E1,-1.098532777E1,1.592721939E1
8.087828000E0,-1.498295217E0,-1.116435197E1,-1.006211557E1,1.510409922E1
8.097822000E0,-1.230167050E0,-1.087931307E1,-8.956593028E0,1.414543469E1
8.107816000E0,-9.748539332E-1,-1.052460694E1,-7.925017887E0,1.321073805E1
8.117810000E0,-8.059731889E-1,-1.017554921E1,-7.109817207E0,1.243948935E1
8.127804000E0,-7.094783431E-1,-9.883147498E0,-6.518239197E0,1.186032909E1
8.137798000E0,-6.254094154E-1,-9.610600006E0,-5.961484280E0,1.132669697E1
8.147792000E0,-5.010783148E-1,-9.269792118E0,-5.462040846E0,1.077098025E1
8.157786000E0,-4.222806519E-1,-8.873150337E0,-5.075369738E0,1.023085998E1
8.167780000E0,-4.735519624E-1,-8.471032639E0,-4.771982276E0,9.734190273E0
8.177774000E0,-4.577060080E-1,-8.052081392E0,-4.468786018E0,9.220388170E0
8.187769000E0,-4.491670266E-1,-7.521421428E0,-4.249320719E0,8.650448421E0
8.197763000E0,-4.585383591E-1,-6.951195111E0,-4.093656144E0,8.080061356E0
8.207757000E0,-3.832794312E-1,-6.161469580E0,-4.155263577E0,7.441560717E0
8.217751000E0,-1.856628379E-1,-5.336350268E0,-4.375308920E0,6.903219033E0
8.227745000E0,9.863083363E-2,-4.604193499E0,-4.506650248E0,6.443463531E0
8.237739000E0,2.691762802E-1,-3.794555275E0,-4.487954360E0,5.883267795E0
8.247733000E0,3.666332853E-1,-2.790852642E0,-4.423465419E0,5.243121661E0
8.257727000E0,5.280547366E-1,-1.676320129E0,-4.260549127E0,4.608814364E0
8.267721000E0,6.749063882E-1,-4.624562860E-1,-3.764311722E0,3.852195113E0
8.277715000E0,8.741359359E-1,4.617511117E-1,-2.573254943E0,2.756622703E0
8.287710000E0,1.216133440E0,1.102476139E0,-5.415983498E-1,1.728514667E0
8.297704000E0,1.427966076E0,1.999002818E0,1.949897901E0,3.136431285E0
8.307698000E0,1.364234641E0,3.402264408E0,4.763750566E0,6.010811818E0
8.317692000E0,1.133066725E0,5.166802064E0,8.401889314E0,9.928314450E0
8.327686000E0,7.676180854E-1,6.639650198E0,1.278747939E1,1.442892309E1
8.337680000E0,9.843017180E-1,7.739682786E0,1.732201852E1,1.899799635E1
8.347674000E0,1.619892305E0,9.093138962E0,2.102963272E1,2.296855850E1
8.357668000E0,2.094591930E0,1.077156643E1,2.397817307E1,2.636980740E1
8.367662000E0,2.613912096E0,1.218982613E1,2.625611263E1,2.906557840E1
8.377656000E0,3.004073115E0,1.289482024E1,2.752035082E1,3.053965543E1
8.387651000E0,2.477367916E0,1.307947531E1,2.697499739E1,3.008089943E1
8.397640875E0,1.058079108E0,1.273073334E1,2.487164633E1,2.796050597E1
8.407634875E0,-9.548313126E-2,1.218099098E1,2.196024983E1,2.511251144E1
8.417628875E0,-5.988447838E-1,1.177680571E1,1.877120765E1,2.216776950E1
8.427622875E0,-4.404910742E-1,1.150456520E1,1.566983160E1,1.944460530E1
8.437616875E0,2.534778401E-1,1.120773480E1,1.315755435E1,1.728579784E1
8.447610875E0,1.168331282E0,1.092831040E1,1.148841519E1,1.589895121E1
8.457604875E0,1.940624363E0,1.041936524E1,1.041117095E1,1.485670473E1
8.467598875E0,2.397332690E0,9.428486720E0,9.823939762E0,1.382582216E1
8.477592875E0,2.413726528E0,8.102693136E0,9.271677845E0,1.254765802E1
8.487586875E0,2.030569596E0,6.500851332E0,8.407906099E0,1.082022023E1
8.497581875E0,1.460059981E0,4.693468788E0,7.112553120E0,8.645740933E0
8.507575875E0,1.068010603E0,2.740968291E0,5.565608484E0,6.295200682E0
8.517569875E0,1.032809781E0,6.394538426E-1,3.986139296E0,4.167121758E0
8.527563875E0,1.236735519E0,-1.618589399E0,2.404194982E0,3.151110899E0
8.537557875E0,1.538099845E0,-3.828729327E0,4.311631572E-1,4.148592660E0
8.547551875E0,1.556771466E0,-5.744329215E0,-1.716433783E0,6.194110143E0
8.557545875E0,1.415120620E0,-7.406911311E0,-3.887540038E0,8.483977197E0
8.567539875E0,1.086671115E0,-8.894559333E0,-5.909342319E0,1.073379553E1
8.577533875E0,7.200866541E-1,-1.016403955E1,-7.698853433E0,1.277100501E1
8.587527875E0,3.955588764E-1,-1.103937124E1,-9.061545287E0,1.428760957E1
8.597521875E0,8.289071381E-2,-1.139743485E1,-1.007341823E1,1.521125067E1
8.607516875E0,-2.296207434E-1,-1.144625793E1,-1.066052663E1,1.564341313E1
8.617510875E0,-4.405827293E-1,-1.139150928E1,-1.114286345E1,1.594126729E1
8.627504875E0,-6.622065282E-1,-1.123171072E1,-1.139467496E1,1.601338380E1
8.637498875E0,-9.485303530E-1,-1.099332442E1,-1.152056552E1,1.595231398E1
8.647492875E0,-1.225413848E0,-1.071317964E1,-1.150851557E1,1.577085248E1
8.657486875E0,-1.487208311E0,-1.047956466E1,-1.127902873E1,1.546769386E1
8.667480875E0,-1.740417599E0,-1.042836411E1,-1.088625255E1,1.517531963E1
8.677474875E0,-1.966795769E0,-1.052762293E1,-1.030565210E1,1.486289324E1
8.687468875E0,-2.059813276E0,-1.068559949E1,-9.652698789E0,1.454645872E1
8.697463875E0,-1.918044316E0,-1.082844814E1,-9.159167476E0,1.431169214E1
8.707457875E0,-1.654297761E0,-1.091565702E1,-8.737875003E0,1.407972759E1
8.717451875E0,-1.374473408E0,-1.083255172E1,-8.235433702E0,1.367683158E1
8.727445875E0,-1.162784614E0,-1.058182428E1,-7.730924242E0,1.315652928E1
8.737439875E0,-9.623990715E-1,-1.026930464E1,-7.313188046E0,1.264387397E1
8.747433875E0,-7.806708249E-1,-9.871395764E0,-7.044815465E0,1.215250288E1
8.757427875E0,-7.311618653E-1,-9.439229225E0,-6.980482060E0,1.176268574E1
8.767421875E0,-7.362407568E-1,-9.026646180E0,-7.021831230E0,1.145986499E1
8.777415875E0,-7.744444174E-1,-8.478474975E0,-6.943906556E0,1.098645258E1
8.787409875E0,-7.455521554E-1,-7.799567630E0,-6.765382292E0,1.035178732E1
8.797404875E0,-6.137994763E-1,-7.034230835E0,-6.645037238E0,9.696064827E0
8.807398875E0,-4.828423110E-1,-6.066697324E0,-6.666766661E0,9.026833932E0
8.817392875E0,-3.944625235E-1,-5.015967874E0,-6.737417983E0,8.408824857E0
8.827386875E0,-3.634222868E-1,-4.047200015E0,-6.700375287E0,7.836257570E0
8.837380875E0,-2.967149118E-1,-2.918622490E0,-6.528411598E0,7.157272873E0
8.847374875E0,-2.332252595E-1,-1.480023837E0,-6.155318309E0,6.335046019E0
8.857368875E0,-1.784833342E-1,4.155966997E-2,-5.348033590E0,5.351172468E0
8.867362875E0,-1.067204108E-2,1.183057203E0,-3.889467865E0,4.065427223E0
8.877356875E0,2.960433590E-1,1.843918287E0,-1.907669894E0,2.669621835E0
8.887350875E0,4.263842279E-1,2.170547846E0,2.270918226E-1,2.223657383E0
8.897344875E0,1.308492842E-1,2.701610098E0,2.412934815E0,3.624647994E0
8.907339875E0,-1.883911487E-1,3.499538687E0,4.818112714E0,5.957891605E0
8.917333875E0,-3.104719484E-1,4.315440449E0,7.539225615E0,8.692487675E0
8.927327875E0,2.735004972E-2,4.964842744E0,1.015317543E1,1.130209639E1
8.937321875E0,4.713165718E-1,5.939259598E0,1.211705987E1,1.350259544E1
8.947315875E0,5.600796443E-1,7.216427152E0,1.393458265E1,1.570232797E1
8.957309875E0,5.307121499E-1,8.567652615E0,1.634040433E1,1.845792893E1
8.967303875E0,5.194920740E-1,9.687017852E0,1.975983265E1,2.201270482E1
8.977297875E0,2.841156238E-1,1.051726985E1,2.338010582E1,2.563831186E1
8.987291875E0,-1.865827511E-1,1.091073133E1,2.644000055E1,2.860336519E1
8.997285875E0,-9.179530697E-1,1.113332314E1,2.809159339E1,3.023129407E1
9.007280875E0,-1.287315250E0,1.126736588E1,2.825856648E1,3.044925769E1
9.017274875E0,-8.787090433E-1,1.127866854E1,2.708466309E1,2.935233327E1
9.027268875E0,-3.171393822E-1,1.123048515E1,2.452108237E1,2.697235352E1
9.037262875E0,1.825942191E-1,1.114539062E1,2.105433136E1,2.382305483E1
9.047256875E0,9.544332634E-1,1.073831799E1,1.694020937E1,2.007966906E1
9.057250875E0,1.432688141E0,9.949314591E0,1.303211637E1,1.645835694E1
9.067244875E0,1.452978857E0,8.780242758E0,9.602032081E0,1.309209038E1
9.077238875E0,1.008477177E0,7.359368185E0,6.970535946E0,1.018654493E1
9.087232875E0,5.858958323E-1,5.686633569E0,4.919042673E0,7.541754179E0
9.097226875E0,4.083759731E-1,3.865094331E0,3.068035222E0,4.951622486E0
9.107220875E0,4.269907303E-1,1.848151671E0,1.292814703E0,2.295507686E0
9.117215875E0,4.973027676E-1,-1.675016785E-1,-3.515585786E-1,6.316330336E-1
9.127209875E0,6.345032975E-1,-1.996492023E0,-1.836374209E0,2.785829332E0
9.137203875E0,7.503918958E-1,-3.581467534E0,-3.243276275E0,4.889666522E0
9.147197875E0,7.622836706E-1,-5.033570917E0,-4.613337960E0,6.870283815E0
9.157191875E0,6.611554912E-1,-6.361201696E0,-6.168710772E0,8.885662957E0
9.167185875E0,4.562523901E-1,-7.517231898E0,-7.666684391E0,1.074685960E1
9.177179875E0,2.553651568E-1,-8.414236879E0,-8.897543752E0,1.224870926E1
9.187173875E0,-7.257622540E-2,-9.057115436E0,-9.901979041E0,1.341960492E1
9.197167875E0,-5.209673265E-1,-9.425392959E0,-1.062890489E1,1.421559209E1
9.207161875E0,-9.541714543E-1,-9.656296581E0,-1.122526242E1,1.483782407E1
9.217156875E0,-1.213974648E0,-9.800412905E0,-1.173831466E1,1.533981286E1
9.227150875E0,-1.314064069E0,-9.759216347E0,-1.206876303E1,1.557639590E1
9.237144875E0,-1.363341479E0,-9.498765575E0,-1.215671685E1,1.548776976E1
9.247138875E0,-1.410542251E0,-9.164148134E0,-1.202134679E1,1.518170014E1
9.257132875E0,-1.322624978E0,-8.876910097E0,-1.171961409E1,1.476137609E1
9.267126875E0,-1.122205229E0,-8.679193516E0,-1.129941447E1,1.429211363E1
9.277120875E0,-9.420501763E-1,-8.606506779E0,-1.082266992E1,1.385963931E1
9.287114875E0,-7.877959496E-1,-8.560139528E0,-1.026606411E1,1.338987242E1
9.297108875E0,-6.616332087E-1,-8.499899758E0,-9.502142342E0,1.276623529E1
9.307102875E0,-4.689487419E-1,-8.371715342E0,-8.662823067E0,1.205612020E1
9.317097875E0,-2.877797815E-1,-8.262710963E0,-7.983817488E0,1.149332638E1
9.327091875E0,-1.691783493E-1,-8.128482866E0,-7.347186681E0,1.095819361E1
9.337085875E0,-9.913632542E-2,-7.891722087E0,-6.720636474E0,1.036610149E1
9.347079875E0,-8.961150348E-3,-7.675394404E0,-6.160497188E0,9.841924871E0
9.357073875E0,1.014304805E-1,-7.405172349E0,-5.775137025E0,9.391436169E0
9.367067875E0,2.595307133E-1,-7.111191888E0,-5.618670797E0,9.066745159E0
9.377061875E0,4.362309390E-1,-6.726316459E0,-5.526346770E0,8.716314540E0
9.387055875E0,4.302927992E-1,-6.045671321E0,-5.494557797E0,8.180798189E0
9.397053500E0,3.317002648E-1,-5.167872689E0,-5.516683661E0,7.566421335E0
9.407047500E0,1.334834549E-1,-4.262326680E0,-5.508035045E0,6.965895249E0
9.417042500E0,-7.861873806E-3,-3.248592564E0,-5.392884073E0,6.295761596E0
9.427036500E0,1.361085624E-2,-1.998573048E0,-4.969398310E0,5.356248598E0
9.437030500E0,-1.129594356E-2,-6.383750314E-1,-4.219595813E0,4.267626870E0
9.447024500E0,1.165814933E-1,4.697313917E-1,-2.981571860E0,3.020597553E0
9.457018500E0,6.996278313E-1,1.200545640E0,-1.060539324E0,1.748008179E0
9.467012500E0,1.367194210E0,1.710643870E0,1.311944454E0,2.552786851E0
9.477006500E0,1.473910573E0,2.613981970E0,3.858933120E0,4.888422950E0
9.487000500E0,1.079634576E0,3.852135732E0,6.446122563E0,7.586636713E0
9.496994500E0,7.387158832E-1,4.713463926E0,8.923714135E0,1.011904725E1
9.506988500E0,7.140798095E-1,5.065758669E0,1.124076806E1,1.235016953E1
9.516983500E0,9.822804818E-1,5.468725383E0,1.347590834E1,1.457641719E1
9.526977500E0,1.265357640E0,6.357863520E0,1.540516441E1,1.671354687E1
9.536971500E0,1.331819286E0,7.272043528E0,1.667855349E1,1.824364290E1
9.546965500E0,1.155265094E0,7.718042825E0,1.718485687E1,1.887384773E1
9.556959500E0,7.398356250E-1,7.745945739E0,1.708602607E1,1.877443258E1
9.566953500E0,4.435522377E-2,8.033798903E0,1.695938122E1,1.876604656E1
9.576947500E0,-4.517757253E-1,8.599643902E0,1.680006097E1,1.887855993E1
9.586941500E0,-4.870575687E-1,9.144895592E0,1.635596845E1,1.874524058E1
9.596935500E0,-2.575522713E-1,9.677407953E0,1.558105333E1,1.834360326E1
9.606929500E0,3.346164174E-2,9.936341958E0,1.447059106E1,1.755363258E1
9.616924500E0,5.050291322E-1,1.009509152E1,1.313593252E1,1.657463877E1
9.626918500E0,9.796645837E-1,1.007248970E1,1.165009187E1,1.543176697E1
9.636912500E0,1.270054416E0,9.712302967E0,1.023328813E1,1.416552339E1
9.646906500E0,1.247413120E0,8.929883532E0,8.978227141E0,1.272428473E1
9.656900500E0,8.473244056E-1,7.871380793E0,7.867198865E0,1.116106680E1
9.666894500E0,2.858939083E-1,6.707120635E0,6.933369874E0,9.650845577E0
9.676888500E0,-2.009315260E-1,5.524171021E0,5.858598427E0,8.054813125E0
9.686882500E0,-4.428818545E-1,4.203301377E0,4.382214482E0,6.088324118E0
9.696876500E0,-2.570196265E-1,2.669255700E0,2.583523239E0,3.723651085E0
9.706870500E0,4.265076041E-2,1.097529395E0,8.387175965E-1,1.381968547E0
9.716864500E0,8.044657767E-2,-5.441570914E-1,-5.461059684E-1,7.751195525E-1
9.726859500E0,-1.251438270E-1,-2.178134024E0,-1.530287088E0,2.664902882E0
9.736853500E0,-3.457446921E-1,-3.786986639E0,-2.600325213E0,4.606788297E0
9.746847500E0,-5.578594565E-1,-5.257975359E0,-3.875801167E0,6.555863539E0
9.756841500E0,-7.633607277E-1,-6.496122104E0,-5.134033683E0,8.315084115E0
9.766835500E0,-7.855073494E-1,-7.401250037E0,-6.296199369E0,9.748725578E0
9.776829500E0,-5.634274676E-1,-7.963449297E0,-7.350973338E0,1.085222485E1
9.786823500E0,-3.725989071E-1,-8.112994176E0,-8.176637025E0,1.152462136E1
9.796817500E0,-2.307693924E-1,-8.008421987E0,-8.861930115E0,1.194662641E1
9.806811500E0,-1.230695273E-1,-7.849465429E0,-9.390169331E0,1.223946623E1
9.816805500E0,3.061602116E-3,-7.782897803E0,-9.743860974E0,1.247061884E1
9.826800500E0,8.638033211E-2,-7.807156146E0,-1.000022864E1,1.268714788E1
9.836794500E0,1.149504125E-1,-7.784281254E0,-1.010768526E1,1.275827377E1
9.846788500E0,1.151576963E-1,-7.768987277E0,-1.001449350E1,1.267519249E1
9.856782500E0,1.610524920E-1,-7.810860942E0,-9.860715240E0,1.258050840E1
9.866776500E0,1.775679526E-1,-7.835142090E0,-9.657211086E0,1.243715031E1
9.876770500E0,1.353253278E-1,-7.865856929E0,-9.317421198E0,1.219443955E1
9.886764500E0,1.053855371E-1,-7.981351132E0,-8.878384765E0,1.193896093E1
9.896758500E0,6.364986598E-2,-8.085693526E0,-8.345674767E0,1.162036051E1
9.906752500E0,8.425837755E-2,-8.216429082E0,-7.835556657E0,1.135397527E1
9.916747500E0,2.294155061E-1,-8.171611344E0,-7.407339327E0,1.103161545E1
9.926741500E0,3.198625767E-1,-7.994870480E0,-7.227685381E0,1.078237924E1
9.936735500E0,3.329293495E-1,-7.798857193E0,-7.209319861E0,1.062578507E1
9.946729500E0,3.373656321E-1,-7.464071937E0,-7.173828431E0,1.035808862E1
9.956723500E0,3.707444992E-1,-7.060308833E0,-7.115266812E0,1.003057496E1
9.966717500E0,3.174315968E-1,-6.579214547E0,-7.131287599E0,9.707836509E0
9.976711500E0,2.702840718E-1,-5.960466279E0,-7.232535061E0,9.376021286E0
9.986705500E0,1.976882582E-1,-5.123574184E0,-7.284387585E0,8.907996158E0
9.996699500E0,1.370043558E-1,-3.990090260E0,-7.289397479E0,8.311131456E0
1.000669350E1,1.070166180E-1,-2.555857723E0,-7.237249671E0,7.676043516E0
1.001668850E1,1.224433636E-1,-1.087648770E0,-6.955961761E0,7.041546438E0
1.002668250E1,2.142720947E-1,4.721275806E-2,-6.191661678E0,6.195548072E0
1.003667650E1,5.616364655E-1,7.780059564E-1,-4.741001973E0,4.837130192E0
1.004667050E1,7.520969439E-1,1.177442122E0,-2.567112443E0,2.922684735E0
1.005666450E1,6.343857685E-1,1.701964263E0,2.971321106E-1,1.840493180E0
1.006665850E1,4.055848047E-1,2.688302420E0,3.419965099E0,4.368939255E0
1.007665250E1,3.606486601E-1,3.716991960E0,6.483643561E0,7.482227644E0
1.008664650E1,2.733225408E-1,4.679645970E0,9.040797611E0,1.018380150E1
1.009664050E1,1.499723107E-1,5.667275777E0,1.103470283E1,1.240585236E1
1.010663550E1,-1.618509293E-2,6.509882941E0,1.274689153E1,1.431300393E1
1.011662950E1,-1.137381385E-1,7.220150658E0,1.442113765E1,1.612801051E1
1.012662350E1,-3.015785892E-1,8.069059952E0,1.606138923E1,1.797689913E1
1.013661750E1,-4.030973992E-1,8.992859799E0,1.735593003E1,1.955152992E1
1.014661150E1,-3.268034775E-1,9.980033523E0,1.815241436E1,2.071757748E1
1.015660550E1,-1.403255743E-1,1.077588752E1,1.837989912E1,2.130634024E1
1.016659950E1,-6.683996066E-2,1.105964939E1,1.819879564E1,2.129592625E1
1.017659350E1,-9.214024153E-2,1.092901440E1,1.791349713E1,2.098440433E1
1.018658750E1,-8.505213708E-2,1.074165090E1,1.780201645E1,2.079187552E1
1.019658150E1,8.318132043E-2,1.062340968E1,1.769366053E1,2.063805648E1
1.020657650E1,4.444521242E-1,1.052003441E1,1.723434186E1,2.019631652E1
1.021657050E1,8.234741977E-1,1.032225585E1,1.623600580E1,1.925707558E1
1.022656450E1,1.094181717E0,9.722703409E0,1.464011354E1,1.760855246E1
1.023655850E1,1.131738237E0,8.736008572E0,1.274789959E1,1.549540645E1
1.024655250E1,1.015113475E0,7.393222395E0,1.076511227E1,1.309877227E1
1.025654650E1,7.954632573E-1,5.672554058E0,8.554466559E0,1.029512163E1
1.026654050E1,4.792858882E-1,3.644064317E0,6.263374854E0,7.262147360E0
1.027653450E1,3.812486932E-1,1.340167210E0,3.823162193E0,4.069148298E0
1.028652850E1,3.446036080E-1,-7.997049737E-1,1.253310914E0,1.526128415E0
1.029652250E1,2.843112132E-1,-2.506268656E0,-1.214587144E0,2.799542351E0
1.030651750E1,4.721483383E-1,-4.035890915E0,-3.458228109E0,5.335792461E0
1.031651150E1,6.938827226E-1,-5.457123338E0,-5.272638422E0,7.619867734E0
1.032650550E1,8.438705284E-1,-6.776795472E0,-6.792237968E0,9.631799985E0
1.033649950E1,8.714970875E-1,-7.944847550E0,-7.996272057E0,1.130577183E1
1.034649350E1,7.869431332E-1,-8.848763940E0,-8.929299980E0,1.259572550E1
1.035648750E1,4.823034900E-1,-9.331883701E0,-9.852598135E0,1.357904121E1
1.036648150E1,-1.424549840E-2,-9.456551601E0,-1.081079540E1,1.436314270E1
1.037647550E1,-4.636792311E-1,-9.340794858E0,-1.176217247E1,1.502711377E1
1.038646950E1,-5.490959421E-1,-9.205050577E0,-1.258737598E1,1.560373342E1
1.039646138E1,-5.431139481E-1,-8.933983600E0,-1.301429289E1,1.579502628E1
1.040645538E1,-4.044714949E-1,-8.539081950E0,-1.307475895E1,1.562142245E1
1.041644937E1,-5.475777125E-1,-8.268849370E0,-1.266524686E1,1.513546132E1
1.042644337E1,-7.281002632E-1,-8.076732084E0,-1.198900935E1,1.447411746E1
1.043643738E1,-7.219264074E-1,-8.056408331E0,-1.115910000E1,1.378232222E1
1.044643138E1,-7.419385030E-1,-8.092313159E0,-1.034325203E1,1.315366366E1
1.045642538E1,-8.139195549E-1,-8.174734926E0,-9.553759807E0,1.260012233E1
1.046641938E1,-8.546196111E-1,-8.231255867E0,-8.872514160E0,1.213282553E1
1.047641337E1,-9.590947368E-1,-8.290183522E0,-8.241979076E0,1.172933181E1
1.048640837E1,-9.667347819E-1,-8.232255156E0,-7.661913648E0,1.128758264E1
1.049640237E1,-6.585467559E-1,-8.066563776E0,-7.331970472E0,1.092066509E1
1.050639638E1,-2.569221973E-1,-7.703765094E0,-7.088314657E0,1.047178162E1
1.051639038E1,8.948235311E-2,-7.185325812E0,-6.699109365E0,9.824203804E0
1.052638438E1,4.826549808E-1,-6.625997534E0,-6.331094382E0,9.177121293E0
1.053637838E1,6.643472669E-1,-6.089149463E0,-6.048362210E0,8.608239303E0
1.054637237E1,6.849510276E-1,-5.455555699E0,-5.823940811E0,8.009402753E0
1.055636637E1,6.557745910E-1,-4.675826569E0,-5.627774912E0,7.346104061E0
1.056636038E1,5.731964108E-1,-3.799890275E0,-5.381578481E0,6.612798740E0
1.057635438E1,4.905851939E-1,-2.683739837E0,-4.974194196E0,5.673247857E0
1.058634938E1,4.183261800E-1,-1.385558560E0,-4.269773110E0,4.508406783E0
1.059634338E1,4.660476458E-1,-9.335021317E-2,-3.181882850E0,3.217187147E0
1.060633738E1,5.063367158E-1,1.042029963E0,-1.665745440E0,2.029017295E0
1.061633137E1,6.183588427E-1,1.906901570E0,3.271072769E-1,2.031167257E0
1.062632537E1,7.690775505E-1,2.718396869E0,2.795143914E0,3.974165487E0
1.063631938E1,6.243411291E-1,3.552784018E0,5.559539074E0,6.627258169E0
1.064631338E1,1.974288976E-1,4.397127221E0,8.344248632E0,9.433991265E0
1.065630738E1,-1.188291630E-1,4.932963139E0,1.112551710E1,1.217067691E1
1.066630138E1,-1.540454811E-1,5.167621844E0,1.355672505E1,1.450906061E1
1.067629637E1,-2.135637045E-2,5.538104936E0,1.546008262E1,1.642209539E1
1.068629037E1,1.817490041E-1,6.318704132E0,1.658917997E1,1.775274476E1
1.069628437E1,2.928808925E-1,7.216154087E0,1.674357920E1,1.823474989E1
1.070627838E1,1.046443295E-1,8.414232786E0,1.599524436E1,1.807368545E1
1.071627238E1,-2.333889815E-1,9.308078517E0,1.502967142E1,1.768009669E1
1.072626638E1,-4.905045024E-1,9.850521204E0,1.435625110E1,1.741767230E1
1.073626038E1,-5.850583649E-1,1.016161062E1,1.405768057E1,1.735566210E1
1.074625437E1,-6.037989834E-1,1.046962557E1,1.401879893E1,1.750726581E1
1.075624837E1,-3.652819937E-1,1.077269026E1,1.395234766E1,1.763100371E1
1.076624238E1,-2.276723050E-2,1.111615571E1,1.355502000E1,1.753020261E1
1.077623738E1,4.263374501E-1,1.125819861E1,1.269241653E1,1.697133575E1
1.078623138E1,1.009701584E0,1.103668971E1,1.129912561E1,1.582713672E1
1.079622538E1,1.497095660E0,1.035823377E1,9.548953396E0,1.416745613E1
1.080621937E1,1.751043160E0,9.284962134E0,7.735465189E0,1.221122826E1
1.081621337E1,1.716220652E0,7.953597908E0,6.374891782E0,1.033655543E1
1.082620737E1,1.301132075E0,6.391275095E0,5.290215737E0,8.398078623E0
1.083620138E1,6.118719417E-1,4.693134327E0,4.109696810E0,6.268134089E0
1.084619538E1,1.007770541E-1,2.863304322E0,2.800515751E0,4.006439332E0
1.085618938E1,-1.748609841E-3,1.048872959E0,1.321052077E0,1.686806489E0
1.086618338E1,2.262398833E-1,-5.622542238E-1,-1.373160124E-1,6.214257673E-1
1.087617837E1,3.507230115E-1,-1.930809081E0,-1.536267035E0,2.492217234E0
1.088617237E1,3.456052360E-1,-3.385882849E0,-2.840889605E0,4.433316974E0
1.089616638E1,4.057789323E-1,-4.944396200E0,-4.080918569E0,6.423831154E0
1.090616038E1,3.148725994E-1,-6.448332226E0,-5.169790576E0,8.270844446E0
1.091615438E1,-8.035126805E-2,-7.796432937E0,-6.079220890E0,9.886746154E0
1.092614838E1,-4.510959499E-1,-8.869052024E0,-6.923889198E0,1.126071991E1
1.093614237E1,-6.390003911E-1,-9.605892413E0,-7.686326358E0,1.231913566E1
1.094613637E1,-7.649733167E-1,-9.885183499E0,-8.314073491E0,1.293931432E1
1.095613037E1,-7.370426293E-1,-9.822108414E0,-8.820624799E0,1.322196912E1
1.096612538E1,-5.202419063E-1,-9.532981727E0,-9.232309127E0,1.328096096E1
1.097611938E1,-1.899011922E-1,-9.205114312E0,-9.429790649E0,1.317919359E1
1.098611338E1,-8.417680889E-2,-8.819210942E0,-9.443576045E0,1.292155934E1
1.099610738E1,-8.792626284E-2,-8.521897568E0,-9.379461910E0,1.267299392E1
1.100610137E1,3.674975038E-3,-8.407409086E0,-9.254692268E0,1.250335435E1
1.101609537E1,5.403675109E-2,-8.385890747E0,-9.000835986E0,1.230207836E1
1.102608938E1,9.293418378E-2,-8.417015476E0,-8.650474332E0,1.207002454E1
1.103608338E1,9.930794120E-2,-8.538448112E0,-8.017744787E0,1.171320578E1
1.104607738E1,8.540326238E-2,-8.633450164E0,-7.289727262E0,1.129972916E1
1.105607238E1,1.631469646E-1,-8.609434479E0,-6.639381811E0,1.087337895E1
1.106606638E1,4.193880343E-1,-8.530234528E0,-6.187508401E0,1.054637604E1
1.107606037E1,4.227376118E-1,-8.453100983E0,-6.054039856E0,1.040600893E1
1.108605437E1,3.203166130E-1,-8.363536842E0,-6.111742519E0,1.036362619E1
1.109604838E1,3.178231410E-1,-8.174830821E0,-6.109160973E0,1.021032410E1
1.110604238E1,4.809124374E-1,-7.838449275E0,-6.054536870E0,9.916147463E0
1.111603638E1,6.240046218E-1,-7.358067180E0,-6.052197983E0,9.547755486E0
1.112603038E1,7.007841913E-1,-6.849106234E0,-5.972555982E0,9.114427006E0
1.113602437E1,6.762702513E-1,-6.208623866E0,-5.790871882E0,8.516956553E0
1.114601837E1,6.176510373E-1,-5.454586231E0,-5.603510136E0,7.844318301E0
1.115601338E1,6.146704191E-1,-4.674334944E0,-5.439617944E0,7.198379697E0
1.116600738E1,3.955507634E-1,-3.505861282E0,-5.164464932E0,6.254536095E0
1.117600138E1,2.198319197E-2,-1.961546724E0,-4.851071715E0,5.232690091E0
1.118599538E1,-4.335725024E-1,-2.947979021E-1,-4.322436642E0,4.354118676E0
1.119598938E1,-5.707894045E-1,9.572008967E-1,-3.158444286E0,3.349299092E0
1.120598337E1,-2.855721653E-1,1.930160040E0,-1.161409056E0,2.270669557E0
1.121597737E1,4.421196699E-2,2.773509800E0,1.523811296E0,3.164855791E0
1.122597138E1,2.457628593E-1,3.777376156E0,4.359451271E0,5.773541841E0
1.123596538E1,7.145940721E-2,4.975192316E0,6.630968837E0,8.290198595E0
1.124596038E1,-4.185442811E-1,6.268461932E0,8.087232513E0,1.024070916E1
1.125595438E1,-9.838337946E-1,7.477439842E0,9.088293375E0,1.181004284E1
1.126594837E1,-1.311460597E0,8.361578609E0,1.010690407E1,1.318277041E1
1.127594237E1,-1.432870428E0,9.356135613E0,1.138628070E1,1.480668023E1
1.128593638E1,-1.388686236E0,1.055760160E1,1.328411382E1,1.702524834E1
1.129593038E1,-8.216823184E-1,1.167271592E1,1.582755206E1,1.968346674E1
1.130592438E1,-5.625489235E-2,1.244215921E1,1.806187841E1,2.193266838E1
1.131591838E1,3.216374990E-1,1.295118506E1,1.969759957E1,2.357609115E1
1.132591238E1,2.682171176E-1,1.324983277E1,2.036739812E1,2.429940154E1
1.133590637E1,-1.039435772E-1,1.327961615E1,1.976229316E1,2.380981395E1
1.134590137E1,-4.138285017E-1,1.312996836E1,1.791015837E1,2.221128307E1
1.135589538E1,-4.848657399E-1,1.287344516E1,1.537980152E1,2.006237722E1
1.136588938E1,-3.659757293E-1,1.245885184E1,1.269851752E1,1.779351777E1
1.137588338E1,-3.591239255E-2,1.161487175E1,1.001752236E1,1.533809929E1
1.138587738E1,3.273596208E-1,1.034110494E1,7.579267933E0,1.282540128E1
1.139587100E1,6.995491862E-1,8.741406721E0,5.497768503E0,1.035021831E1
1.140586500E1,9.348911378E-1,7.113438388E0,4.058665236E0,8.243044986E0
1.141585900E1,1.151660871E0,5.458244249E0,3.194207026E0,6.428196603E0
1.142585300E1,1.239029967E0,3.623048254E0,2.505288663E0,4.575821806E0
1.143584700E1,9.430158439E-1,1.470589355E0,1.754315554E0,2.475789772E0
1.144584200E1,6.121151859E-1,-7.776194555E-1,7.252102768E-1,1.226909517E0
1.145583600E1,4.538951582E-1,-2.798361636E0,-6.410969102E-1,2.906519209E0
1.146583000E1,2.460938117E-1,-4.476299105E0,-2.023687423E0,4.918650896E0
1.147582400E1,1.766929168E-1,-5.992544689E0,-3.329594627E0,6.857697326E0
1.148581800E1,2.044280148E-1,-7.361214151E0,-4.570383144E0,8.667044864E0
1.149581200E1,9.643461943E-2,-8.525228142E0,-5.654783785E0,1.023061065E1
1.150580600E1,-1.973756880E-2,-9.343081119E0,-6.665228843E0,1.147688241E1
1.151580000E1,-2.156888750E-1,-9.602685800E0,-7.449825196E0,1.215557451E1
1.152579400E1,-5.300699794E-1,-9.399544172E0,-8.097799602E0,1.241800158E1
1.153578900E1,-5.804436692E-1,-8.909430556E0,-8.627804677E0,1.241587215E1
1.154578300E1,-5.160301568E-1,-8.541129645E0,-9.029875013E0,1.244008945E1
1.155577700E1,-2.356670567E-1,-8.232839878E0,-9.241992116E0,1.237940264E1
1.156577100E1,1.075387743E-1,-7.954020662E0,-9.370287044E0,1.229147219E1
1.157576500E1,2.831213048E-1,-7.746333994E0,-9.370472986E0,1.216106952E1
1.158575900E1,3.075674171E-1,-7.617430955E0,-9.309190072E0,1.203249234E1
1.159575300E1,4.748079443E-1,-7.670887370E0,-9.142980629E0,1.194412200E1
1.160574700E1,4.903683353E-1,-7.762859395E0,-8.794326362E0,1.174063981E1
1.161574100E1,4.010029265E-1,-7.881642072E0,-8.487839291E0,1.158984473E1
1.162573600E1,4.166723681E-1,-8.021265981E0,-8.105709130E0,1.141125954E1
1.163573000E1,4.230899066E-1,-8.053902215E0,-7.771032633E0,1.119970063E1
1.164572400E1,4.521748343E-1,-8.023683804E0,-7.393105450E0,1.091979725E1
1.165571800E1,6.408747891E-1,-7.836051916E0,-6.985024177E0,1.051689084E1
1.166571200E1,8.766172019E-1,-7.598771905E0,-6.526234680E0,1.005492572E1
1.167570600E1,1.005118537E0,-7.344095258E0,-6.166367792E0,9.642099885E0
1.168570000E1,1.169141414E0,-7.149833797E0,-5.863879048E0,9.320519967E0
1.169569400E1,1.192727328E0,-6.822677404E0,-5.475973592E0,8.829372130E0
1.170568800E1,1.139769681E0,-6.438161579E0,-4.953602057E0,8.202875884E0
1.171568200E1,1.099175093E0,-5.931044844E0,-4.431571999E0,7.484938825E0
1.172567700E1,1.028382634E0,-5.222892650E0,-3.862846661E0,6.577063387E0
1.173567100E1,7.440921787E-1,-4.193611956E0,-3.296792917E0,5.385990897E0
1.174566500E1,5.881667447E-1,-3.106684733E0,-2.770275121E0,4.203790479E0
1.175565900E1,4.864156175E-1,-1.840900539E0,-2.249935493E0,2.947494643E0
1.176565300E1,2.923110813E-1,-2.457631516E-1,-1.416461679E0,1.467040894E0
1.177564700E1,2.200933633E-1,1.188518502E0,-2.236589223E-1,1.229243927E0
1.178564100E1,3.510867083E-1,1.997510608E0,1.274916376E0,2.395563039E0
1.179563500E1,5.730253798E-1,2.304863652E0,2.889995692E0,3.740699084E0
1.180562900E1,6.078490573E-1,2.776615841E0,4.434598517E0,5.267327597E0
1.181562400E1,3.148216921E-1,3.918920875E0,5.451118248E0,6.720992759E0
1.182561800E1,-2.477476966E-1,5.193629674E0,6.067448691E0,7.990563293E0
1.183561200E1,-5.729560903E-1,6.065696865E0,6.554879605E0,8.949156596E0
1.184560600E1,-8.382004103E-1,6.594776326E0,6.949286579E0,9.616976588E0
1.185560000E1,-1.298017848E0,7.355607256E0,7.404533249E0,1.051745792E1
1.186559400E1,-1.564117908E0,8.349154446E0,8.148562204E0,1.177089252E1
1.187558800E1,-1.147288907E0,9.191838208E0,9.096971228E0,1.298310622E1
1.188558200E1,-3.985973820E-1,9.407965917E0,1.003008452E1,1.375759056E1
1.189557600E1,8.780412912E-2,9.350895923E0,1.075233260E1,1.424989896E1
1.190557000E1,-1.228418148E-1,9.386420681E0,1.109194941E1,1.453104693E1
1.191556500E1,-8.784482574E-1,1.010610768E1,1.102624424E1,1.498276162E1
1.192555900E1,-1.284218711E0,1.052028234E1,1.040061556E1,1.484918725E1
1.193555300E1,-1.195370196E0,1.080811620E1,9.294091392E0,1.430469925E1
1.194554700E1,-9.861802091E-1,1.102046486E1,8.372577222E0,1.387527464E1
1.195554100E1,-9.442016593E-1,1.136509858E1,7.792619383E0,1.381238210E1
1.196553500E1,-6.910586637E-1,1.151456861E1,7.338929828E0,1.367196926E1
1.197552900E1,-2.299139082E-1,1.092654922E1,6.699432716E0,1.281892105E1
1.198552300E1,2.111748976E-1,9.621576399E0,5.795209932E0,1.123404582E1
1.199551700E1,4.470966006E-1,7.862214698E0,4.860745348E0,9.254250951E0
1.200551100E1,3.001720780E-1,5.901929219E0,4.208114805E0,7.254729629E0
1.201550600E1,-1.041266316E-1,4.094104625E0,3.675725820E0,5.503044188E0
1.202550000E1,-4.440346330E-1,2.402150795E0,3.009144990E0,3.875880386E0
1.203549400E1,-5.557772630E-1,7.496001828E-1,1.941367983E0,2.153995925E0
1.204548800E1,-3.411852526E-1,-8.771039826E-1,5.291946512E-1,1.079706327E0
1.205548200E1,-6.371732824E-2,-2.348967445E0,-9.024575096E-1,2.517168551E0
1.206547600E1,2.214195118E-1,-3.667470136E0,-2.196752143E0,4.280780744E0
1.207547000E1,5.058753705E-1,-4.811990680E0,-3.398434482E0,5.912742267E0
1.208546400E1,6.399999726E-1,-5.875198088E0,-4.486755096E0,7.420143114E0
1.209545800E1,6.048263392E-1,-6.701277512E0,-5.476947738E0,8.675822250E0
1.210545300E1,5.795537961E-1,-7.254082051E0,-6.356732669E0,9.662589675E0
1.211544700E1,6.913876426E-1,-7.583674979E0,-7.041981905E0,1.037206114E1
1.212544100E1,8.336968848E-1,-7.681135785E0,-7.493230247E0,1.076305705E1
1.213543500E1,1.006238571E0,-7.690842748E0,-7.855287502E0,1.103934418E1
1.214542900E1,1.105248743E0,-7.641313908E0,-8.138410268E0,1.121806466E1
1.215542300E1,1.097685077E0,-7.608049098E0,-8.404757958E0,1.138978841E1
1.216541700E1,1.023147110E0,-7.526961665E0,-8.609973593E0,1.148188256E1
1.217541100E1,9.127471474E-1,-7.341210242E0,-8.681751673E0,1.140610746E1
1.218540500E1,1.022079555E0,-7.066653646E0,-8.560757579E0,1.114759215E1
1.219539900E1,1.188581652E0,-6.831849346E0,-8.203948785E0,1.074205136E1
1.220539400E1,1.356003224E0,-6.669048829E0,-7.711319697E0,1.028491169E1
1.221538800E1,1.465708391E0,-6.609845186E0,-7.225583307E0,9.901889142E0
1.222538200E1,1.512419751E0,-6.538088740E0,-6.843997521E0,9.585109282E0
1.223537600E1,1.486457528E0,-6.480101318E0,-6.676464268E0,9.422125248E0
1.224537000E1,1.340830138E0,-6.461840463E0,-6.592233957E0,9.327955627E0
1.225536400E1,1.270504067E0,-6.466736337E0,-6.583198839E0,9.315114943E0
1.226535800E1,1.206019365E0,-6.415011867E0,-6.606977127E0,9.287572703E0
1.227535200E1,1.205741183E0,-6.267815230E0,-6.512976703E0,9.119110981E0
1.228534600E1,1.360031224E0,-6.048932313E0,-6.324489952E0,8.856547873E0
1.229534100E1,1.511650988E0,-5.626642306E0,-6.174990681E0,8.489682106E0
1.230533500E1,1.549976124E0,-5.154187281E0,-6.099599022E0,8.134689960E0
1.231532900E1,1.425016010E0,-4.635695373E0,-6.039895442E0,7.746010532E0
1.232532300E1,1.174015068E0,-4.145587605E0,-5.879173025E0,7.288956264E0
1.233531700E1,8.124548274E-1,-3.584320976E0,-5.488002484E0,6.604968657E0
1.234531100E1,3.462374662E-1,-2.650665062E0,-4.926132422E0,5.604702159E0
1.235530500E1,-2.484598875E-2,-1.484211028E0,-4.143084996E0,4.400983184E0
1.236529900E1,-1.223200969E-1,-4.767375255E-1,-3.203856686E0,3.241440813E0
1.237529300E1,4.004073876E-1,1.660258412E-2,-2.143748302E0,2.180884799E0
1.238528700E1,7.533584806E-1,7.825357944E-1,-4.368916744E-1,1.170805537E0
1.239528200E1,7.217890710E-1,2.021209373E0,1.817585351E0,2.812451476E0
1.240528050E1,5.698512188E-1,3.592754999E0,4.338583728E0,5.661795445E0
1.241527450E1,2.222491586E-1,4.685935235E0,6.587610564E0,8.087273747E0
1.242526850E1,-2.445597947E-3,4.851218480E0,8.724649186E0,9.982676502E0
1.243526250E1,-4.038905740E-1,4.801800152E0,1.052098517E1,1.157201544E1
1.244525650E1,-1.218607689E0,5.565067617E0,1.239635095E1,1.364274530E1
1.245525050E1,-1.655176305E0,6.799228899E0,1.398172992E1,1.563514931E1
1.246524450E1,-1.494251575E0,7.947183512E0,1.532020904E1,1.732337492E1
1.247523850E1,-1.250280010E0,9.070099179E0,1.688926843E1,1.921138431E1
1.248523250E1,-9.751486328E-1,1.017139886E1,1.845678532E1,2.109647350E1
1.249522750E1,-8.564258160E-1,1.116222241E1,1.974367095E1,2.269672260E1
1.250522150E1,-9.045832649E-1,1.185676404E1,2.003013540E1,2.329393588E1
1.251521550E1,-1.069774928E0,1.226064994E1,1.893461511E1,2.258290514E1
1.252520950E1,-1.054332797E0,1.247447092E1,1.679818284E1,2.095001168E1
1.253520350E1,-7.917802423E-1,1.235216471E1,1.427655940E1,1.889505325E1
1.254519750E1,-4.751289199E-1,1.188777534E1,1.183635258E1,1.678225826E1
1.255519150E1,-1.363102913E-2,1.091440104E1,9.674353368E0,1.458483627E1
1.256518550E1,2.925569567E-1,9.654837116E0,7.736127679E0,1.237534407E1
1.257517950E1,1.384550500E-1,8.314668152E0,6.002763283E0,1.025602473E1
1.258517350E1,-2.545196494E-1,6.952048804E0,4.506329235E0,8.288713169E0
1.259516850E1,-3.829154420E-1,5.338499705E0,2.938090210E0,6.105618512E0
1.260516250E1,-3.285725892E-1,3.345390295E0,1.410297545E0,3.645344338E0
1.261515650E1,2.889752448E-2,1.141147285E0,-1.896018147E-2,1.141670566E0
1.262515050E1,4.751733953E-1,-1.000341654E0,-1.373768234E0,1.764571433E0
1.263514450E1,5.497274414E-1,-2.917147822E0,-2.686707884E0,4.003792069E0
1.264513850E1,3.773535705E-1,-4.534447911E0,-4.199467943E0,6.191861156E0
1.265513250E1,2.657445493E-1,-5.926234925E0,-5.938871927E0,8.394109859E0
1.266512650E1,1.140815163E-1,-6.942468141E0,-7.607804684E0,1.029997916E1
1.267512050E1,-1.646941379E-1,-7.565514112E0,-8.778717805E0,1.159008258E1
1.268511450E1,-3.141123883E-1,-7.722611255E0,-9.453130980E0,1.221061327E1
1.269510950E1,-2.281218097E-1,-7.528559709E0,-9.712102407E0,1.229049161E1
1.270510350E1,1.163449734E-2,-7.222129941E0,-9.828142741E0,1.219638004E1
1.271509750E1,3.353556517E-1,-6.986082523E0,-9.667648365E0,1.193236093E1
1.272509150E1,4.287938654E-1,-6.793626097E0,-9.476949613E0,1.166832437E1
1.273508550E1,2.477155370E-1,-6.724199767E0,-9.406445056E0,1.156535491E1
1.274507950E1,-6.447256923E-2,-6.640792744E0,-9.579886921E0,1.165669415E1
1.275507350E1,-3.351185471E-1,-6.611105261E0,-9.835999060E0,1.185604887E1
1.276506750E1,-5.831501260E-1,-6.679880211E0,-1.002303979E1,1.205911234E1
1.277506150E1,-6.006751084E-1,-6.890229117E0,-9.999048668E0,1.215800321E1
1.278505650E1,-3.583763590E-1,-7.105653990E0,-9.688594261E0,1.202029995E1
1.279505050E1,-1.072612508E-1,-7.294694472E0,-9.211329317E0,1.175043234E1
1.280504450E1,1.137461784E-1,-7.487849640E0,-8.691842798E0,1.147296656E1
1.281503850E1,2.886209035E-1,-7.611022407E0,-8.422976713E0,1.135594561E1
1.282503250E1,3.684008986E-1,-7.636218059E0,-8.303533884E0,1.128699342E1
1.283502650E1,3.384546760E-1,-7.525590493E0,-8.256570218E0,1.117676230E1
1.284502050E1,3.529604486E-1,-7.296736320E0,-8.319220794E0,1.107142162E1
1.285501450E1,4.666700088E-1,-7.004251576E0,-8.442897007E0,1.097997408E1
1.286500850E1,7.026940381E-1,-6.612207461E0,-8.510429424E0,1.080011460E1
1.287500250E1,9.597571532E-1,-6.114419959E0,-8.361555220E0,1.040302220E1
1.288499750E1,1.281553404E0,-5.573153147E0,-8.066702939E0,9.888079259E0
1.289499150E1,1.528465241E0,-4.984009332E0,-7.699108372E0,9.298001115E0
1.290498550E1,1.640109053E0,-4.250549219E0,-7.365649849E0,8.660826985E0
1.291497950E1,1.717097880E0,-3.422617396E0,-7.065677161E0,8.036574439E0
1.292497350E1,1.733431785E0,-2.681630162E0,-6.592362596E0,7.324968988E0
1.293496750E1,1.737881808E0,-1.928879499E0,-5.863075640E0,6.412212197E0
1.294496150E1,1.523398483E0,-1.148527932E0,-5.040969983E0,5.389920011E0
1.295495550E1,1.268117234E0,-1.457327870E-1,-4.194558620E0,4.384481883E0
1.296494950E1,1.080449532E0,8.728805387E-1,-3.124211762E0,3.419062848E0
1.297494350E1,1.053447967E0,1.565152280E0,-1.458590283E0,2.384730571E0
1.298493850E1,9.036073646E-1,2.042378633E0,9.157125628E-1,2.413782560E0
1.299493250E1,5.113897334E-1,2.439309851E0,4.080264850E0,4.781245994E0
1.300492650E1,-2.025560104E-1,3.344619925E0,7.605595606E0,8.310992474E0
1.301492050E1,-8.778259675E-1,4.525412793E0,1.100507732E1,1.193154082E1
1.302491450E1,-1.323937093E0,5.676710844E0,1.417256901E1,1.532447610E1
1.303490850E1,-1.472123079E0,6.586275060E0,1.708811586E1,1.837253029E1
1.304490250E1,-1.289132273E0,7.507292216E0,1.961275179E1,2.103999361E1
1.305489650E1,-1.042470843E0,8.844062194E0,2.158856572E1,2.335316577E1
1.306489050E1,-9.077471933E-1,1.020897190E1,2.315866942E1,2.532530516E1
1.307488450E1,-7.386508329E-1,1.103334276E1,2.446303823E1,2.684623804E1
1.308487950E1,-9.288033092E-1,1.098507049E1,2.518721121E1,2.749418225E1
1.309487350E1,-1.579116016E0,1.015715972E1,2.500061954E1,2.703132402E1
1.310486750E1,-2.204265961E0,9.136153420E0,2.378410632E1,2.557365444E1
1.311486150E1,-2.351574865E0,8.376061578E0,2.167314219E1,2.335408753E1
1.312485550E1,-2.049094745E0,7.965621538E0,1.894677732E1,2.065503054E1
1.313484950E1,-1.386465902E0,7.592037082E0,1.572546552E1,1.751717959E1
1.314484350E1,-2.071779603E-1,7.262326625E0,1.245501022E1,1.441913972E1
1.315483750E1,1.049662479E0,6.924320723E0,9.886996136E0,1.211613393E1
1.316483150E1,1.946725348E0,6.439100057E0,8.068576972E0,1.050493615E1
1.317482550E1,2.121287978E0,5.365645988E0,6.695125072E0,8.838253180E0
1.318482050E1,1.689179033E0,3.955443753E0,5.318162504E0,6.839715894E0
1.319481450E1,1.349981761E0,2.328568849E0,3.709853094E0,4.583415061E0
1.320480850E1,1.237728084E0,7.422303522E-1,2.038935208E0,2.498025918E0
1.321480250E1,1.201967098E0,-6.798399764E-1,3.891222614E-1,1.434685831E0
1.322479650E1,1.384273634E0,-2.030884761E0,-1.224594653E0,2.745967675E0
1.323479050E1,1.695441694E0,-3.375340319E0,-2.905695466E0,4.765554631E0
1.324478450E1,1.972325774E0,-4.693513811E0,-4.432804592E0,6.750473865E0
1.325477850E1,2.143919626E0,-5.764802071E0,-5.832060839E0,8.475981826E0
1.326477250E1,2.139847040E0,-6.740274932E0,-7.153478951E0,1.005895187E1
1.327476650E1,1.975020171E0,-7.465623788E0,-8.451135734E0,1.144805391E1
1.328476150E1,1.854650705E0,-7.945286676E0,-9.598543632E0,1.259759300E1
1.329475550E1,1.750381255E0,-8.023059906E0,-1.052994310E1,1.335339008E1
1.330474950E1,1.685292389E0,-7.899287800E0,-1.124459331E1,1.384484875E1
1.331474350E1,1.684698166E0,-7.723635103E0,-1.181679248E1,1.421721954E1
1.332473750E1,1.800292941E0,-7.624777397E0,-1.222635368E1,1.452108844E1
1.333473150E1,1.853295320E0,-7.507091657E0,-1.243852224E1,1.464609041E1
1.334472550E1,1.827359410E0,-7.385468987E0,-1.249312120E1,1.462745610E1
1.335471950E1,1.629614763E0,-7.212753346E0,-1.240999368E1,1.444601669E1
1.336471350E1,1.314389759E0,-7.048117973E0,-1.235994970E1,1.428887483E1
1.337470750E1,1.260270562E0,-6.899536715E0,-1.228217705E1,1.414368275E1
1.338470250E1,1.315189074E0,-6.886906729E0,-1.209331082E1,1.397881873E1
1.339469650E1,1.361205345E0,-6.892245237E0,-1.169596211E1,1.364373314E1
1.340468638E1,1.406328016E0,-6.916939198E0,-1.117534590E1,1.321779719E1
1.341468038E1,1.411952891E0,-6.982552559E0,-1.056571520E1,1.274299764E1
1.342467437E1,1.331842529E0,-6.963301186E0,-9.987287579E0,1.224774596E1
1.343466837E1,1.196990752E0,-6.872411481E0,-9.529761080E0,1.181013009E1
1.344466238E1,1.178889892E0,-6.757115498E0,-9.172096839E0,1.145319832E1
1.345465638E1,1.174660893E0,-6.560485915E0,-8.913721243E0,1.112988006E1
1.346465038E1,1.172286193E0,-6.314209378E0,-8.659331694E0,1.078088681E1
1.347464438E1,1.149484391E0,-5.974169229E0,-8.320887836E0,1.030772461E1
1.348463938E1,1.078021037E0,-5.605744942E0,-8.023808935E0,9.847233902E0
1.349463337E1,9.598520243E-1,-5.175660596E0,-7.834945039E0,9.439022315E0
1.350462737E1,7.648615618E-1,-4.569517171E0,-7.651357085E0,8.944761910E0
1.351462138E1,6.700837509E-1,-3.956799722E0,-7.387659938E0,8.407306087E0
1.352461538E1,5.491681552E-1,-3.227778815E0,-6.927497515E0,7.662268826E0
1.353460938E1,4.053788365E-1,-2.264771633E0,-6.094647599E0,6.514464822E0
1.354460338E1,4.824325673E-1,-1.210752247E0,-4.802878379E0,4.976575420E0
1.355459737E1,6.009430571E-1,-2.520863307E-1,-2.956514786E0,3.027484064E0
1.356459137E1,5.330156970E-1,5.517312822E-1,-5.704186910E-1,9.559762675E-1
1.357458538E1,4.121771384E-1,1.171794004E0,2.287122030E0,2.602675232E0
1.358458038E1,-1.142911389E-2,1.921559955E0,5.381024165E0,5.713837970E0
1.359457438E1,-6.480982201E-1,2.930781190E0,9.003283630E0,9.490449189E0
1.360456838E1,-1.302170540E0,3.874486421E0,1.314722583E1,1.376796427E1
1.361456238E1,-1.487970934E0,4.672546865E0,1.699190227E1,1.768534688E1
1.362455637E1,-1.064476254E0,5.316922309E0,2.005024982E1,2.077053900E1
1.363455037E1,-6.111315380E-1,6.131600833E0,2.232084762E1,2.315578219E1
1.364454438E1,-3.496439078E-1,7.144096509E0,2.393997438E1,2.498565066E1
1.365453838E1,-2.021920395E-1,7.970530860E0,2.503709681E1,2.627596735E1
1.366453238E1,-1.956202076E-1,8.209106614E0,2.597044106E1,2.723768543E1
1.367452638E1,-6.008788839E-1,8.105643057E0,2.671490622E1,2.792398108E1
1.368452137E1,-1.142547254E0,7.833338224E0,2.668278396E1,2.783231147E1
1.369451537E1,-1.372491202E0,7.648835181E0,2.502732728E1,2.620602073E1
1.370450938E1,-1.075227237E0,7.565991245E0,2.177771613E1,2.307962862E1
1.371450338E1,-4.775520426E-1,7.588574946E0,1.795868441E1,1.950202224E1
1.372449738E1,5.533436519E-1,7.647968624E0,1.437174973E1,1.628940771E1
1.373449138E1,1.716313768E0,7.632653596E0,1.142945654E1,1.385047330E1
1.374448538E1,2.372899661E0,7.369500241E0,9.276756737E0,1.208297985E1
1.375447937E1,2.321435392E0,6.566543630E0,7.736452199E0,1.040967099E1
1.376447337E1,1.819888423E0,5.374292850E0,6.422983961E0,8.570282404E0
1.377446738E1,1.324558360E0,3.979921660E0,5.060402620E0,6.572815678E0
1.378446138E1,1.047987106E0,2.429465186E0,3.579462524E0,4.451194225E0
1.379445638E1,1.058786475E0,8.063216829E-1,2.015704220E0,2.415418588E0
1.380445038E1,1.180309888E0,-7.083732194E-1,4.582515532E-1,1.450833738E0
1.381444437E1,1.262276450E0,-2.167334801E0,-1.106446398E0,2.741332816E0
1.382443837E1,1.270083944E0,-3.572834705E0,-2.677075766E0,4.641658724E0
1.383443238E1,1.159537947E0,-4.777340080E0,-4.401160045E0,6.598311620E0
1.384442638E1,1.129521558E0,-5.918001460E0,-6.185992218E0,8.635106250E0
1.385442038E1,1.183706536E0,-6.873469827E0,-7.958175108E0,1.058197995E1
1.386441438E1,1.256064953E0,-7.511922626E0,-9.426371198E0,1.211871093E1
1.387440838E1,1.323094509E0,-7.793412850E0,-1.044060467E1,1.309557516E1
1.388440237E1,1.455587153E0,-7.847948077E0,-1.120551520E1,1.375763765E1
1.389439737E1,1.498113953E0,-7.855107408E0,-1.178445971E1,1.424150795E1
1.390439138E1,1.418749987E0,-7.849236218E0,-1.230931515E1,1.466774012E1
1.391438538E1,1.236818111E0,-7.902018449E0,-1.283843203E1,1.512603556E1
1.392437938E1,9.877378343E-1,-7.975714417E0,-1.321814671E1,1.546955232E1
1.393437338E1,6.362343657E-1,-7.889940441E0,-1.348605911E1,1.563744687E1
1.394436737E1,3.685997770E-1,-7.712425990E0,-1.363459359E1,1.566906260E1
1.395436137E1,1.764403170E-1,-7.511955956E0,-1.357017833E1,1.551161994E1
1.396435538E1,1.782281032E-1,-7.424765199E0,-1.332657630E1,1.525636063E1
1.397434938E1,2.624084204E-1,-7.469739643E0,-1.288681540E1,1.489751253E1
1.398434338E1,2.306311423E-1,-7.578394943E0,-1.223049702E1,1.438993808E1
1.399433838E1,1.344999933E-1,-7.687636135E0,-1.146842940E1,1.380734270E1
1.400433238E1,1.163607609E-1,-7.716494483E0,-1.072016472E1,1.320907865E1
1.401432637E1,1.319090921E-1,-7.663316395E0,-1.010157959E1,1.268013125E1
1.402432037E1,2.841366738E-2,-7.536749904E0,-9.675639170E0,1.226464022E1
1.403431438E1,-1.184828617E-1,-7.306071399E0,-9.358577410E0,1.187331835E1
1.404430838E1,-1.799685270E-1,-6.981976023E0,-9.166456615E0,1.152407501E1
1.405430238E1,-2.006736638E-1,-6.532064939E0,-9.063911070E0,1.117419465E1
1.406429638E1,-1.225614408E-1,-5.912216810E0,-8.956408841E0,1.073250149E1
1.407429037E1,2.370431989E-2,-5.121032399E0,-8.770832834E0,1.015642867E1
1.408428437E1,1.684183757E-1,-4.260704663E0,-8.405871853E0,9.425531846E0
1.409427937E1,2.492847835E-1,-3.403448177E0,-7.887316795E0,8.593914627E0
1.410427338E1,2.583709180E-1,-2.389420822E0,-7.385121077E0,7.766344103E0
1.411426738E1,2.492018992E-1,-1.330128417E0,-6.791911694E0,6.925417507E0
1.412426138E1,2.397218084E-1,-3.470445281E-1,-5.684062548E0,5.699690650E0
1.413425538E1,4.204579286E-1,4.423880571E-1,-3.786309532E0,3.835183429E0
1.414424937E1,4.737238705E-1,1.257679954E0,-1.052055598E0,1.706749587E0
1.415424337E1,4.716941558E-1,1.977447350E0,2.241897910E0,3.026367400E0
1.416423738E1,3.592935678E-1,2.977396363E0,6.071441755E0,6.771734338E0
1.417423138E1,3.191464390E-1,4.207701992E0,1.058771827E1,1.139764839E1
1.418422538E1,8.839595506E-1,5.222921301E0,1.552052295E1,1.639960134E1
1.419421938E1,1.927131474E0,5.982036658E0,1.990226381E1,2.087100149E1
1.420421438E1,2.838289348E0,6.639309306E0,2.285595439E1,2.396937558E1
1.421420837E1,2.670856960E0,7.357806394E0,2.493222583E1,2.613210050E1
1.422420237E1,1.483069359E0,7.983309950E0,2.613676628E1,2.736902052E1
1.423419638E1,6.151579307E-1,7.890843835E0,2.688073794E1,2.802173991E1
1.424419038E1,1.785096467E-1,7.480973314E0,2.782362719E1,2.881234210E1
1.425418438E1,-1.933010557E-1,7.140162503E0,2.848680202E1,2.936864271E1
1.426417838E1,-1.889717773E-1,6.928163513E0,2.775704144E1,2.860923818E1
1.427417237E1,1.105116449E-1,6.848557180E0,2.521740155E1,2.613105986E1
1.428416637E1,4.977178834E-1,6.921835656E0,2.172773647E1,2.280907855E1
1.429416038E1,1.032449592E0,6.955874053E0,1.795636657E1,1.928422248E1
1.430415438E1,1.820718728E0,6.835142498E0,1.409151023E1,1.576720806E1
1.431414938E1,2.211065104E0,6.584553055E0,1.080050079E1,1.284118239E1
1.432414338E1,2.230825476E0,6.100835123E0,8.310017277E0,1.054766129E1
1.433413738E1,1.948223258E0,5.457316881E0,6.667541417E0,8.833684959E0
1.434413137E1,1.512611686E0,4.491981630E0,5.204019592E0,7.039013637E0
1.435412537E1,1.177197562E0,3.143829170E0,3.544199721E0,4.881680818E0
1.436411938E1,9.163845541E-1,1.526384071E0,1.950506596E0,2.640849288E0
1.437411338E1,7.574836913E-1,-1.079290760E-1,4.608138031E-1,8.931850811E-1
1.438410738E1,7.468350345E-1,-1.678276023E0,-1.101950474E0,2.142117603E0
1.439410138E1,7.758889720E-1,-3.146895450E0,-2.659096162E0,4.192343864E0
1.440409600E1,8.083600223E-1,-4.430740525E0,-4.204602383E0,6.161459950E0
1.441409000E1,9.019645894E-1,-5.584827697E0,-5.740299314E0,8.059458837E0
1.442408500E1,1.076658928E0,-6.616136205E0,-7.270156631E0,9.888762823E0
1.443407900E1,1.188443658E0,-7.477708814E0,-8.602077513E0,1.145967997E1
1.444407300E1,1.306643076E0,-8.134708396E0,-9.701317803E0,1.272777922E1
1.445406700E1,1.237447272E0,-8.487823504E0,-1.062962176E1,1.365881702E1
1.446406100E1,1.122401403E0,-8.656463050E0,-1.152674602E1,1.445890768E1
1.447405500E1,1.139678025E0,-8.670881699E0,-1.239814371E1,1.517224515E1
1.448404900E1,1.335976072E0,-8.519330640E0,-1.315406005E1,1.572873557E1
1.449404300E1,1.474115372E0,-8.286865227E0,-1.354563171E1,1.594770485E1
1.450403700E1,1.464513659E0,-7.866670277E0,-1.361848802E1,1.579533214E1
1.451403100E1,1.302863874E0,-7.559209644E0,-1.354900088E1,1.556966697E1
1.452402600E1,1.171764475E0,-7.370207754E0,-1.340464833E1,1.534202044E1
1.453402000E1,1.031334455E0,-7.296022375E0,-1.314098100E1,1.506588779E1
1.454401400E1,8.837395491E-1,-7.290278070E0,-1.266693320E1,1.464173304E1
1.455400800E1,8.335435416E-1,-7.358855385E0,-1.199711593E1,1.409887719E1
1.456400200E1,9.005429851E-1,-7.428882224E0,-1.129436013E1,1.354849953E1
1.457399600E1,9.299726792E-1,-7.489020837E0,-1.055998727E1,1.297935335E1
1.458399000E1,8.485308324E-1,-7.552858399E0,-9.903658361E0,1.248391459E1
1.459398400E1,7.293132681E-1,-7.567046667E0,-9.491604490E0,1.216070100E1
1.460397800E1,6.001317559E-1,-7.565412371E0,-9.284984354E0,1.199193716E1
1.461397200E1,4.645147982E-1,-7.338842704E0,-9.078258383E0,1.168285759E1
1.462396600E1,4.995671019E-1,-6.865395992E0,-8.836952564E0,1.120156061E1
1.463396100E1,7.954926395E-1,-6.259840797E0,-8.580538124E0,1.065101168E1
1.464395500E1,1.200312336E0,-5.498281304E0,-8.376800666E0,1.009171127E1
1.465394900E1,1.408787647E0,-4.710506405E0,-8.086581134E0,9.463949897E0
1.466394300E1,1.440150212E0,-4.060260941E0,-7.656640629E0,8.785436658E0
1.467393700E1,1.337815752E0,-3.397047522E0,-7.158188299E0,8.035505123E0
1.468393100E1,1.166323714E0,-2.547896446E0,-6.639712763E0,7.206793523E0
1.469392500E1,8.523667520E-1,-1.554941288E0,-6.016785491E0,6.272645306E0
1.470391900E1,4.573697931E-1,-4.676772648E-1,-5.057117069E0,5.099249181E0
1.471391300E1,1.510306567E-1,4.270537341E-1,-3.382958656E0,3.413150219E0
1.472390700E1,1.115278179E-1,1.073279530E0,-8.389953393E-1,1.366850607E0
1.473390100E1,3.703567922E-1,1.463926745E0,2.575939400E0,2.985918529E0
1.474389600E1,4.814756705E-1,2.013004853E0,6.463238533E0,6.786564645E0
1.475389000E1,1.878915042E-1,2.978933888E0,1.051264119E1,1.092817346E1
1.476388400E1,-3.031939191E-1,4.033521624E0,1.438264660E1,1.494060730E1
1.477387800E1,-5.233676085E-1,4.931080336E0,1.797660730E1,1.864799927E1
1.478387200E1,-3.060485297E-1,5.828440828E0,2.102841650E1,2.182335191E1
1.479386600E1,-3.437519610E-2,7.117670603E0,2.300642430E1,2.408231666E1
1.480386000E1,1.115900177E-1,8.852112055E0,2.379715731E1,2.539049106E1
1.481385400E1,1.728419405E-1,1.027220603E1,2.402086476E1,2.612565855E1
1.482384800E1,2.501557262E-1,1.104881684E1,2.417316368E1,2.657970605E1
1.483384200E1,9.055568263E-2,1.097959165E1,2.440282126E1,2.675924735E1
1.484383600E1,-2.575637099E-1,1.042759695E1,2.426377681E1,2.641083078E1
1.485383100E1,-4.262427253E-1,9.884452597E0,2.324617885E1,2.526398459E1
1.486382500E1,-2.863779116E-1,9.524659384E0,2.136124469E1,2.339025274E1
1.487381900E1,-4.715530917E-2,9.222204553E0,1.876368111E1,2.090758258E1
1.488381300E1,3.104447588E-1,8.729512900E0,1.578250511E1,1.803852098E1
1.489380700E1,8.059866375E-1,8.056442245E0,1.282587689E1,1.516769574E1
1.490380100E1,1.199219199E0,7.142896661E0,1.021427415E1,1.252160117E1
1.491379500E1,1.213987950E0,5.939090613E0,8.060423614E0,1.008548427E1
1.492378900E1,1.092343061E0,4.468578442E0,6.165875457E0,7.692816571E0
1.493378300E1,1.014218997E0,2.733924150E0,4.426032931E0,5.300259328E0
1.494377700E1,1.021343683E0,8.156795669E-1,2.661460776E0,2.965105317E0
1.495377100E1,9.686909679E-1,-1.067785778E0,8.203778046E-1,1.658779190E0
1.496376600E1,9.418043008E-1,-2.849828244E0,-1.038304701E0,3.175939706E0
1.497376000E1,9.375516209E-1,-4.427943217E0,-2.863800166E0,5.356027965E0
1.498375400E1,9.763075510E-1,-5.888683521E0,-4.670526652E0,7.579154917E0
1.499374800E1,1.036573049E0,-7.060357364E0,-6.299066843E0,9.518475345E0
1.500374200E1,1.219085991E0,-8.064411415E0,-7.622021604E0,1.116315885E1
1.501373600E1,1.337847619E0,-8.834092106E0,-8.700086203E0,1.247086683E1
1.502373000E1,1.395254413E0,-9.527369569E0,-9.606051457E0,1.360124003E1
1.503372400E1,1.257372390E0,-1.007050983E1,-1.040481035E1,1.453465624E1
1.504371800E1,9.382463432E-1,-1.042318347E1,-1.106544866E1,1.523046992E1
1.505371200E1,6.692144892E-1,-1.054658779E1,-1.169525459E1,1.576252968E1
1.506370600E1,4.464390812E-1,-1.051153724E1,-1.225627622E1,1.615264777E1
1.507370100E1,2.953952683E-1,-1.035566216E1,-1.271222339E1,1.639901280E1
1.508369500E1,1.722230127E-1,-9.992071770E0,-1.308165749E1,1.646210563E1
1.509368900E1,3.703158617E-2,-9.605556782E0,-1.330598358E1,1.641088942E1
1.510368300E1,-7.041304797E-2,-9.129871756E0,-1.326624941E1,1.610443696E1
1.511367700E1,-5.255185068E-2,-8.740064201E0,-1.292825579E1,1.560548883E1
1.512367100E1,6.845920086E-2,-8.394458672E0,-1.227278993E1,1.486919620E1
1.513366500E1,3.134283006E-1,-8.126390147E0,-1.151041007E1,1.409347346E1
1.514365900E1,5.095682526E-1,-7.886704007E0,-1.073088969E1,1.332710596E1
1.515365300E1,5.900907710E-1,-7.700894111E0,-1.017015691E1,1.277043730E1
1.516364700E1,6.758086136E-1,-7.566025743E0,-9.716793628E0,1.233359401E1
1.517364100E1,7.629759809E-1,-7.379865015E0,-9.355526918E0,1.194028575E1
1.518363600E1,7.771089935E-1,-7.111635107E0,-8.998937395E0,1.149609179E1
1.519363000E1,7.055563232E-1,-6.842184885E0,-8.656284710E0,1.105642658E1
1.520362400E1,6.018913293E-1,-6.442820055E0,-8.355744842E0,1.056838092E1
1.521361800E1,5.142582312E-1,-5.851966515E0,-8.151685202E0,1.004788263E1
1.522361200E1,3.734464610E-1,-5.067230998E0,-7.876153291E0,9.372837506E0
1.523360600E1,3.081086500E-1,-4.146246001E0,-7.453945144E0,8.535079675E0
1.524360000E1,2.684290426E-1,-3.117978630E0,-6.919810765E0,7.594578719E0
1.525359400E1,2.239723696E-1,-2.128232716E0,-6.037833713E0,6.405854671E0
1.526358800E1,2.252781991E-1,-1.265635675E0,-4.635531067E0,4.810481493E0
1.527358200E1,2.212386136E-1,-4.709832805E-1,-2.535031110E0,2.587886107E0
1.528357600E1,2.892487665E-1,2.883934468E-1,2.564044994E-1,4.822643429E-1
1.529357000E1,4.781490433E-1,1.087749342E0,3.405320163E0,3.606664740E0
1.530356500E1,6.552854714E-1,2.064232602E0,6.625346155E0,6.970341954E0
1.531355900E1,9.072440404E-1,2.994420531E0,9.860684835E0,1.034518011E1
1.532355300E1,1.079434601E0,3.780817827E0,1.297443242E1,1.355712577E1
1.533354700E1,1.113569915E0,4.465490527E0,1.570227079E1,1.636282224E1
1.534354100E1,1.052385089E0,5.177835760E0,1.792236619E1,1.868498614E1
1.535353500E1,8.728504255E-1,6.113855703E0,1.948105495E1,2.043655063E1
1.536352900E1,6.299139641E-1,7.241319333E0,2.045825684E1,2.171114391E1
1.537352300E1,4.502581170E-1,8.339448068E0,2.105361799E1,2.264959066E1
1.538351700E1,3.016161941E-1,9.050099947E0,2.134062974E1,2.318227252E1
1.539351100E1,-2.013094023E-2,9.409412518E0,2.149425013E1,2.346359388E1
1.540350417E1,-1.867320013E-1,9.467573018E0,2.153268973E1,2.352289384E1
1.541349917E1,1.423650831E-3,9.460272185E0,2.114413757E1,2.316400884E1
1.542349317E1,3.862359296E-1,9.424460328E0,1.993905449E1,2.205755029E1
1.543348717E1,7.274712490E-1,9.297341275E0,1.806252862E1,2.032792929E1
1.544348117E1,9.873457785E-1,8.970546239E0,1.576184690E1,1.816263663E1
1.545347517E1,1.054981399E0,8.490858793E0,1.325964907E1,1.578055647E1
1.546346917E1,8.124624288E-1,7.792973725E0,1.091774799E1,1.343829438E1
1.547346317E1,3.897178003E-1,6.840571053E0,8.946299590E0,1.126860988E1
1.548345717E1,-1.091456349E-2,5.662587479E0,7.318757519E0,9.253606200E0
1.549345117E1,-1.957492849E-1,4.279968315E0,5.745363588E0,7.166983278E0
1.550344517E1,-3.095841949E-1,2.790245116E0,4.196413357E0,5.048880594E0
1.551343917E1,-3.118761572E-1,1.156192755E0,2.644482801E0,2.902987721E0
1.552343317E1,-4.018937498E-2,-5.191210681E-1,1.025706291E0,1.150293555E0
1.553342817E1,3.844333792E-1,-2.197933280E0,-5.846180695E-1,2.306616140E0
1.554342217E1,6.604877391E-1,-3.671239836E0,-2.095739154E0,4.278594230E0
1.555341617E1,9.596959037E-1,-5.062412893E0,-3.661702443E0,6.321163287E0
1.556341017E1,1.281152139E0,-6.303525345E0,-5.361462890E0,8.373832271E0
1.557340417E1,1.354210175E0,-7.267012584E0,-6.985403076E0,1.017050703E1
1.558339817E1,1.336186717E0,-7.959297774E0,-8.432840381E0,1.167255811E1
1.559339217E1,1.329277940E0,-8.339450406E0,-9.602646623E0,1.278765948E1
1.560338617E1,1.229767246E0,-8.499769950E0,-1.060748186E1,1.364833646E1
1.561338017E1,1.185430295E0,-8.591892833E0,-1.161105703E1,1.449284350E1
1.562337417E1,1.283036843E0,-8.550184059E0,-1.254595196E1,1.523655938E1
1.563336817E1,1.313353925E0,-8.308682358E0,-1.324754417E1,1.569256281E1
1.564336317E1,1.399513086E0,-7.972498448E0,-1.378117861E1,1.598249831E1
1.565335717E1,1.444254811E0,-7.646138445E0,-1.399053700E1,1.600888599E1
1.566335117E1,1.285605817E0,-7.421222956E0,-1.388451061E1,1.579578954E1
1.567334517E1,1.083182666E0,-7.378197974E0,-1.353836947E1,1.545634297E1
1.568333917E1,9.034674700E-1,-7.459616359E0,-1.308888465E1,1.509241634E1
1.569333317E1,7.293973218E-1,-7.580722135E0,-1.252376061E1,1.465755602E1
1.570332717E1,6.071050722E-1,-7.684214929E0,-1.196005862E1,1.422879959E1
1.571332117E1,5.799037519E-1,-7.768162234E0,-1.144305366E1,1.384283605E1
1.572331517E1,7.213134000E-1,-7.738566552E0,-1.092776427E1,1.340976276E1
1.573330917E1,9.381062293E-1,-7.501574224E0,-1.026477421E1,1.274830376E1
1.574330317E1,1.194614663E0,-7.185827503E0,-9.588876430E0,1.204200034E1
1.575329817E1,1.307313751E0,-6.881320884E0,-8.931956955E0,1.135083703E1
1.576329217E1,1.224353163E0,-6.497233660E0,-8.407209696E0,1.069552527E1
1.577328617E1,1.178145542E0,-6.092529153E0,-8.082617891E0,1.018997794E1
1.578328017E1,1.188898790E0,-5.599101335E0,-7.824718258E0,9.694825007E0
1.579327417E1,1.188772198E0,-4.910525034E0,-7.567817915E0,9.099357309E0
1.580326817E1,1.147325160E0,-4.023517622E0,-7.328842211E0,8.439015182E0
1.581326217E1,1.240883827E0,-3.016539379E0,-7.170699002E0,7.877704403E0
1.582325617E1,1.300339192E0,-1.943378255E0,-6.856688903E0,7.244431225E0
1.583325017E1,1.169895486E0,-9.489957914E-1,-6.019023221E0,6.204666711E0
1.584324417E1,9.891525681E-1,-2.967122805E-1,-4.367424535E0,4.487856732E0
1.585323817E1,7.974293835E-1,-1.495279223E-2,-1.691044587E0,1.869692222E0
1.586323217E1,5.985041834E-1,1.385833964E-1,1.653406060E0,1.763849261E0
1.587322717E1,3.279729572E-1,6.053710073E-1,5.471177121E0,5.514328554E0
1.588322117E1,2.239702865E-2,1.461150194E0,9.276966652E0,9.391356227E0
1.589321517E1,4.162983656E-2,2.506400803E0,1.275389416E1,1.299790730E1
1.590320917E1,3.645734574E-1,3.556102020E0,1.615149015E1,1.654235199E1
1.591320317E1,7.663958712E-1,4.773455774E0,1.916260039E1,1.976305888E1
1.592319717E1,7.588194877E-1,5.918486195E0,2.164859792E1,2.245586956E1
1.593319117E1,3.772986066E-1,6.964108686E0,2.347422728E1,2.448837501E1
1.594318517E1,1.055361030E-1,7.962483922E0,2.439846625E1,2.566510167E1
1.595317917E1,1.492909639E-1,8.919012973E0,2.473832982E1,2.629745315E1
1.596317317E1,2.802380245E-1,9.635791565E0,2.470834062E1,2.652223800E1
1.597316717E1,2.152494568E-1,9.914123708E0,2.421087822E1,2.616300452E1
1.598316117E1,-1.160113898E-1,9.744432832E0,2.322527623E1,2.518691894E1
1.599315617E1,-2.618688686E-1,9.497334176E0,2.154656400E1,2.354829828E1
1.600315017E1,-2.659221585E-1,9.359531676E0,1.929426331E1,2.144621515E1
1.601314417E1,3.846196130E-2,9.153197469E0,1.684455126E1,1.917084793E1
1.602313817E1,6.312371890E-1,8.664235754E0,1.448938635E1,1.689407466E1
1.603313217E1,1.136658377E0,7.872692324E0,1.251518742E1,1.482906582E1
1.604312617E1,1.133310992E0,6.736765434E0,1.099558378E1,1.294493202E1
1.605312017E1,8.695425095E-1,5.352473381E0,9.587039820E0,1.101437279E1
1.606311417E1,5.599523212E-1,3.872735472E0,8.055502598E0,8.955598737E0
1.607310817E1,3.181907116E-1,2.338847669E0,6.329018621E0,6.754844961E0
1.608310217E1,2.288300537E-1,7.182974061E-1,4.399400618E0,4.463523289E0
1.609309617E1,2.597786352E-1,-8.013679218E-1,2.289809411E0,2.439857091E0
1.610309017E1,5.143747370E-1,-2.255872756E0,1.111269182E-1,2.316439607E0
1.611308517E1,9.587756981E-1,-3.617215072E0,-1.905277798E0,4.199235550E0
1.612307917E1,1.335807526E0,-4.883790979E0,-3.813867459E0,6.338878534E0
1.613307317E1,1.622215258E0,-6.126373422E0,-5.643343123E0,8.485950463E0
1.614306717E1,1.844369838E0,-7.311395874E0,-7.404635575E0,1.056819936E1
1.615306117E1,1.961992574E0,-8.256863748E0,-9.026075492E0,1.238932010E1
1.616305517E1,2.314817513E0,-8.934241462E0,-1.053608268E1,1.400671585E1
1.617304917E1,2.594092081E0,-9.288328961E0,-1.156497863E1,1.505825685E1
1.618304317E1,2.717375653E0,-9.497323651E0,-1.219321751E1,1.569260464E1
1.619303717E1,2.753369358E0,-9.611596956E0,-1.279241912E1,1.623606559E1
1.620303117E1,2.715542843E0,-9.635311509E0,-1.363125951E1,1.691226291E1
1.621302517E1,2.650054028E0,-9.595519452E0,-1.440920699E1,1.751348127E1
1.622301917E1,2.577680701E0,-9.426781672E0,-1.502432940E1,1.792314494E1
1.623301417E1,2.385184953E0,-9.282037357E0,-1.534377683E1,1.809079357E1
1.624300817E1,2.067503242E0,-9.131432962E0,-1.528870775E1,1.792769428E1
1.625300217E1,1.735353326E0,-9.079755270E0,-1.498173127E1,1.760413811E1
1.626299617E1,1.570519878E0,-8.984483078E0,-1.423964008E1,1.691019865E1
1.627299017E1,1.601748980E0,-8.941355184E0,-1.326553722E1,1.607755921E1
1.628298417E1,1.787093291E0,-8.773014430E0,-1.207808350E1,1.503461292E1
1.629297817E1,1.854651436E0,-8.534194263E0,-1.097380174E1,1.402485395E1
1.630297217E1,1.816220757E0,-8.404946238E0,-1.009470678E1,1.326065172E1
1.631296617E1,1.665595312E0,-8.179844223E0,-9.443466117E0,1.260409106E1
1.632296017E1,1.393149415E0,-7.865216659E0,-8.851270056E0,1.192256180E1
1.633295417E1,1.262252769E0,-7.509638704E0,-8.323305075E0,1.128119510E1
1.634294817E1,1.256393274E0,-7.044458785E0,-7.883238362E0,1.064651918E1
1.635294317E1,1.352428528E0,-6.430803443E0,-7.532037633E0,9.995793453E0
1.636293717E1,1.251291724E0,-5.603576210E0,-7.140040880E0,9.162203943E0
1.637293117E1,1.079264301E0,-4.717138901E0,-6.778670674E0,8.328660574E0
1.638292517E1,9.242204078E-1,-3.822187462E0,-6.441034901E0,7.546537680E0
1.639291917E1,8.072844270E-1,-2.748234041E0,-5.895420098E0,6.554424203E0
1.640291325E1,7.946349992E-1,-1.490434512E0,-5.185842937E0,5.453971653E0
1.641290725E1,6.565344366E-1,-4.357912284E-1,-4.104520270E0,4.179478210E0
1.642290125E1,4.599408138E-1,3.984836537E-1,-2.469417749E0,2.543296836E0
1.643289525E1,3.172058943E-1,1.132665606E0,-2.419694781E-2,1.176493284E0
1.644288925E1,2.083101274E-1,1.768704675E0,3.234393770E0,3.692290941E0
1.645288325E1,1.216024974E-1,2.483372129E0,7.055072651E0,7.480372612E0
1.646287725E1,9.256595537E-2,3.279615844E0,1.104558917E1,1.152256433E1
1.647287225E1,3.217139514E-1,4.078069806E0,1.501805885E1,1.556522550E1
1.648286625E1,2.968129988E-1,4.828594141E0,1.873650560E1,1.935097055E1
1.649286025E1,-1.451600522E-1,5.539335775E0,2.185574605E1,2.254726032E1
1.650285425E1,-5.664412688E-1,6.481354376E0,2.394870310E1,2.481671192E1
1.651284825E1,-8.569477531E-1,7.690824037E0,2.527832252E1,2.643627665E1
1.652284225E1,-9.385966645E-1,8.820071653E0,2.563954011E1,2.713043761E1
1.653283625E1,-9.332175185E-1,9.414783186E0,2.582761464E1,2.750590328E1
1.654283025E1,-1.117664720E0,9.436272288E0,2.636690801E1,2.802688437E1
1.655282425E1,-1.010409974E0,9.056151815E0,2.664045947E1,2.815579683E1
1.656281825E1,-5.811619265E-1,8.711767770E0,2.591762434E1,2.734878239E1
1.657281225E1,1.755601649E-1,8.608479044E0,2.375889313E1,2.527096626E1
