"Time (s)","Linear Acceleration x (m/s^2)","Linear Acceleration y (m/s^2)","Linear Acceleration z (m/s^2)","Absolute acceleration (m/s^2)"
3.364395833E-2,1.281028470E-1,2.445657588E0,2.384775794E0,3.418304692E0
4.369495832E-2,1.005536028E0,1.587801470E0,1.320364444E0,2.296862747E0
5.374495831E-2,1.147480111E0,1.199101962E0,4.246195382E-1,1.713142690E0
6.379595835E-2,2.208613512E0,8.846270102E-1,-8.606545955E-1,2.530072119E0
7.384695834E-2,2.992877744E0,-1.406044865E-1,-1.983698900E0,3.593347762E0
8.389695833E-2,3.333148857E0,-1.118281163E0,-2.532478216E0,4.332883564E0
9.394795832E-2,3.365079917E0,-1.894918286E0,-3.310081884E0,5.086366113E0
1.039979584E-1,3.158196364E0,-2.642114094E0,-3.996189491E0,5.737987592E0
1.140489583E-1,3.137640185E0,-3.514177192E0,-4.680607252E0,6.640957123E0
1.240999583E-1,3.127316049E0,-4.362132220E0,-5.293164487E0,7.538295130E0
1.341499583E-1,3.172631093E0,-4.786558215E0,-6.441372285E0,8.629484603E0
1.442009583E-1,3.351936253E0,-5.023835303E0,-7.654011721E0,9.749784265E0
1.542509584E-1,3.408099052E0,-5.064992684E0,-8.626716510E0,1.056832663E1
1.643019583E-1,3.357704824E0,-4.951817486E0,-9.201038218E0,1.097514384E1
1.743519583E-1,3.273016384E0,-4.863474244E0,-9.180778785E0,1.089278280E1
1.844029583E-1,4.294177341E0,-4.290410857E0,-9.072404736E0,1.091586515E1
1.944529584E-1,1.909589535E0,-4.685530608E0,-9.894340239E0,1.111299681E1
2.045039583E-1,1.613933262E0,-5.012457206E0,-1.014497997E1,1.143022862E1
2.145549583E-1,3.027600849E0,-4.821809324E0,-1.006408023E1,1.156295477E1
2.246049583E-1,3.123701008E0,-4.820710047E0,-9.832825191E0,1.138776557E1
2.346559583E-1,3.596294319E0,-5.068732563E0,-9.374441491E0,1.124746798E1
2.447059584E-1,2.241626599E-1,-4.684923082E0,-8.026288739E0,9.296239245E0
2.547569583E-1,8.218843397E-1,-3.679972945E0,-9.279965689E0,1.001675885E1
2.648069583E-1,1.262110097E0,-3.692420205E0,-8.336246717E0,9.204341269E0
2.748579583E-1,-2.927320808E-1,-3.594687504E0,-6.558695498E0,7.484915294E0
2.849089583E-1,-2.659952487E0,-2.648217125E0,-6.073327482E0,7.139587374E0
2.949589583E-1,-2.734821990E0,-1.093965517E0,-4.675697930E0,5.526134544E0
3.050099583E-1,-2.670995539E0,1.211418537E0,-1.933463717E0,3.512838451E0
3.150599583E-1,-4.044534562E0,2.986450776E0,-1.330021706E0,5.200587063E0
3.251109583E-1,-4.483725069E0,3.434348957E0,2.930639688E0,6.362954678E0
3.351619584E-1,-4.415921926E0,3.232004305E0,9.134765875E0,1.064848186E1
3.452119583E-1,-5.199572200E0,3.498467770E0,1.165527601E1,1.323330218E1
3.552625000E-1,-5.872541113E0,3.073838876E0,1.471791191E1,1.614162804E1
3.653125000E-1,-5.743995924E0,1.523041510E0,1.712226594E1,1.812415889E1
3.753635000E-1,-4.537649261E0,5.664753288E-2,1.797589861E1,1.853985978E1
3.854135000E-1,-3.377546766E0,-9.539492601E-1,1.772271885E1,1.806689251E1
3.954645000E-1,-2.579708515E0,5.688095373E-1,1.446776920E1,1.470696386E1
4.055145000E-1,-2.809090108E0,3.179603898E0,1.248251786E1,1.318385832E1
4.155655000E-1,-2.749708709E0,5.035067219E0,1.309206904E1,1.429388232E1
4.256165000E-1,-2.137395156E0,4.195957274E0,1.335355536E1,1.415951822E1
4.356665000E-1,-1.709792369E0,3.275778024E0,1.147430702E1,1.205461875E1
4.457175000E-1,-1.346576927E0,2.546617660E0,8.600396438E0,9.070024797E0
4.557675000E-1,-9.317931367E-1,1.298139031E0,6.353520209E0,6.551383246E0
4.658185000E-1,-3.706300034E-1,-3.473496066E-1,4.986454638E0,5.012259790E0
4.758695000E-1,5.008519544E-1,-1.179092498E0,1.908454006E0,2.298544864E0
4.859195000E-1,4.949086617E-1,-1.457610582E0,-1.196632683E-2,1.539385068E0
4.959705000E-1,1.087371539E0,-3.380330917E0,-1.131278354E-1,3.552718942E0
5.060205000E-1,2.329308522E0,-2.244247029E0,-1.216250677E0,3.455660375E0
5.160715000E-1,2.587279490E0,-1.583174861E0,-3.356788273E0,4.524211015E0
5.261215000E-1,2.313612841E0,-2.754293511E0,-3.689016541E0,5.152453800E0
5.361725000E-1,2.285337168E0,-2.463985978E0,-4.893158219E0,5.936075322E0
5.462235000E-1,2.091407390E0,-2.808227643E0,-5.617589062E0,6.619473864E0
5.562735000E-1,1.098961597E0,-5.250411401E0,-6.174628739E0,8.179277262E0
5.663245000E-1,6.910463114E-1,-3.335765194E0,-8.011729172E0,8.705899078E0
5.763745000E-1,1.270383468E0,-1.494752242E0,-9.908600428E0,1.010091683E1
5.864255000E-1,3.949253306E-1,-2.533619007E0,-7.908831040E0,8.314132529E0
5.964755000E-1,-1.457709400E-1,-1.197095637E0,-6.993272259E0,7.096488147E0
6.065265000E-1,-8.377342410E-3,-3.044292895E-1,-7.594374799E0,7.600478667E0
6.165775000E-1,-9.803256114E-1,-2.631687047E0,-9.979248827E0,1.036688102E1
6.266275000E-1,-1.185183104E0,-4.629044750E0,-1.051415679E1,1.154903491E1
6.366785000E-1,-1.266017645E0,-4.283904368E0,-1.138955514E1,1.223423899E1
6.467285000E-1,-1.127982644E0,-4.917375047E0,-1.079901209E1,1.191937852E1
6.567795000E-1,-1.211309779E0,-5.228634616E0,-9.771075670E0,1.114808553E1
6.668305000E-1,-1.778922976E0,-5.167412513E0,-8.869712175E0,1.041818185E1
6.768805000E-1,-2.490767980E0,-5.251701881E0,-8.273008495E0,1.011073525E1
6.869315000E-1,-3.629795941E0,-5.057802948E0,-8.141432109E0,1.024888804E1
6.969815000E-1,-4.964733986E0,-4.587730663E0,-8.242216473E0,1.065973680E1
7.070325000E-1,-5.701486666E0,-4.099967336E0,-8.196839156E0,1.079374145E1
7.170825000E-1,-5.621032487E0,-4.495736420E0,-8.058306338E0,1.080481158E1
7.271335000E-1,-5.612730610E0,-5.035798706E0,-7.546009555E0,1.066790859E1
7.371845000E-1,-5.792427242E0,-5.061575571E0,-7.186470112E0,1.052697076E1
7.472345000E-1,-5.333748842E0,-4.766531794E0,-7.134384869E0,1.010287828E1
7.572855000E-1,-3.598181216E0,-4.310953295E0,-6.651069810E0,8.704479077E0
7.673355000E-1,-1.942769560E0,-1.647334312E0,-3.077234062E0,3.994675628E0
7.773865000E-1,-4.005468437E-1,3.628706312E0,6.089320201E0,7.099842800E0
7.874375000E-1,4.500484943E-2,2.081779745E1,2.955355167E1,3.614962147E1
7.974875000E-1,3.659557392E0,3.642500537E1,3.362725770E1,4.970881046E1
8.075385000E-1,9.888301234E0,1.129667329E1,1.493022665E1,2.117321413E1
8.175885000E-1,1.093796064E1,-1.913182649E-1,1.974158583E0,1.111633428E1
8.276395000E-1,1.567872990E1,-1.126812104E0,1.561515780E1,2.215683709E1
8.376895000E-1,1.355232444E1,3.661306002E0,2.242011463E1,2.645245167E1
8.477405000E-1,9.467219262E0,5.733184422E0,2.599231667E1,2.825063132E1
8.577915000E-1,6.790107828E0,4.230824806E0,1.775184968E1,1.947135357E1
8.678415000E-1,5.646447995E0,1.562586230E0,5.778029058E0,8.228588608E0
8.778925000E-1,1.594913439E0,-1.196270156E0,6.015791464E0,6.337551428E0
8.879425000E-1,-1.321352039E0,1.625429180E0,6.837380812E0,7.151067585E0
8.979935000E-1,-2.867342701E0,3.352023377E0,4.880032389E0,6.578178396E0
9.080445000E-1,-2.962485671E0,3.844014534E0,2.131215380E0,5.300457347E0
9.180945000E-1,-2.129777550E0,4.411446467E0,-4.614944190E-1,4.920344444E0
9.281455000E-1,-1.155892208E0,4.756049490E0,-2.740166638E0,5.609332113E0
9.381955000E-1,-7.884502530E-2,4.594043317E0,-5.100825591E0,6.865119974E0
9.482465000E-1,2.527453119E-1,4.289772341E0,-7.283378356E0,8.456573018E0
9.582975000E-1,-2.200663930E-1,4.311712264E0,-8.954835355E0,9.941245802E0
9.683475000E-1,-2.114304648E0,4.642043403E0,-1.005229926E1,1.127242527E1
9.783985000E-1,-4.503656181E0,4.773843737E0,-1.112912250E1,1.292013431E1
9.884485000E-1,-6.010257075E0,4.484215651E0,-1.257868234E1,1.464426951E1
9.984995000E-1,-7.302349647E0,4.482801209E0,-1.378291173E1,1.622924745E1
1.008549500E0,-8.036181058E0,5.348915350E0,-1.506217726E1,1.789022876E1
1.018600500E0,-8.101363479E0,4.295824209E0,-1.376170153E1,1.653694727E1
1.028651500E0,-8.754578744E0,2.538653168E0,-1.255763470E1,1.551713885E1
1.038701500E0,-8.586882353E0,1.414946081E0,-1.297232391E1,1.562106938E1
1.048752500E0,-8.665197621E0,7.750259230E-1,-1.219389696E1,1.497923356E1
1.058802500E0,-9.075664558E0,7.161605412E-1,-1.180858533E1,1.491050839E1
1.068853500E0,-9.117957469E0,8.668941593E-1,-1.064167989E1,1.404044176E1
1.078904500E0,-8.405229828E0,-1.840761960E-2,-1.013221316E1,1.316472449E1
1.088954500E0,-8.770769100E0,-5.560976905E-1,-9.251697325E0,1.276046781E1
1.099005500E0,-8.469270873E0,-9.745820376E-1,-9.004972891E0,1.240031838E1
1.109055500E0,-8.701843876E0,-1.406615553E0,-8.279243381E0,1.209324295E1
1.119106500E0,-8.783162273E0,-9.699191755E-1,-7.667448038E0,1.169933512E1
1.129157500E0,-9.508358517E0,-4.382520291E-1,-7.185327566E0,1.192601689E1
1.139207500E0,-1.020944552E1,-7.676353347E-1,-7.371189501E0,1.261572338E1
1.149258500E0,-9.898585317E0,-1.423777131E0,-7.019151451E0,1.221792207E1
1.159308500E0,-7.499970918E0,-1.931645232E0,-5.095433289E0,9.270612573E0
1.169359500E0,-2.209742902E0,-2.882154868E0,-1.221868097E0,3.831806626E0
1.179409500E0,7.254297228E0,-4.385816659E0,5.064212666E0,9.874536241E0
1.189460500E0,1.963055539E1,-4.191225123E0,1.350667522E1,2.419411806E1
1.199511500E0,3.172992977E1,-2.981547301E0,2.006668284E1,3.766098548E1
1.209561500E0,4.158983225E1,-4.484939243E0,2.174829528E1,4.714676207E1
1.219612500E0,4.575220779E1,-7.176948506E0,1.925771003E1,5.015608142E1
1.229663500E0,4.153550460E1,-7.877118666E0,1.655937437E1,4.540330407E1
1.239713500E0,3.460926014E1,-6.725352838E0,1.661539654E1,3.897566755E1
1.249764500E0,2.691269882E1,-4.983591256E0,1.529241488E1,3.135263135E1
1.259814500E0,1.877776940E1,-5.579448259E0,1.222075907E1,2.308856467E1
1.269865500E0,1.236750664E1,-7.169560549E0,8.459992511E0,1.661111953E1
1.279916500E0,7.677681835E0,-6.789913116E0,5.677297320E0,1.171671555E1
1.289966500E0,4.449598964E0,-5.207836654E0,3.882362328E0,7.873578018E0
1.300017500E0,2.073167732E0,-3.846446975E0,2.304599358E0,4.940076617E0
1.310067500E0,4.655903935E-1,-2.660210642E0,9.392575461E-1,2.859318067E0
1.320118500E0,-5.802145314E-1,-1.852422769E0,5.317925692E-2,1.941892647E0
1.330168500E0,-1.304424350E0,-1.303993264E0,-5.119596907E-1,1.914164058E0
1.340219500E0,-2.073201061E0,-7.404764798E-1,-1.039567115E0,2.434577549E0
1.350274125E0,-2.724166317E0,-2.576213050E-1,-1.552882483E0,3.146250922E0
1.360324125E0,-3.299380894E0,3.827821255E-2,-2.389381646E0,4.073883179E0
1.370375125E0,-3.992720922E0,1.190962346E-1,-3.577168954E0,5.362102386E0
1.380425125E0,-4.998137375E0,2.454218204E-1,-4.653880506E0,6.833755399E0
1.390476125E0,-6.099028918E0,5.214332034E-1,-5.561815395E0,8.270661208E0
1.400527125E0,-7.255395920E0,8.116772939E-1,-6.258364960E0,9.615961832E0
1.410577125E0,-8.414373119E0,1.282581929E0,-6.635394595E0,1.079236549E1
1.420628125E0,-9.136559801E0,1.752806095E0,-7.105347596E0,1.170619574E1
1.430679125E0,-9.929031769E0,1.965101539E0,-7.460758320E0,1.257418827E1
1.440729125E0,-1.047530789E1,2.028816162E0,-7.754068691E0,1.318991098E1
1.450780125E0,-1.086127324E1,2.010263970E0,-7.893518937E0,1.357630505E1
1.460830125E0,-1.124374546E1,1.818284386E0,-7.929426688E0,1.387817631E1
1.470881125E0,-1.146448019E1,1.612738675E0,-7.977646337E0,1.405980346E1
1.480931125E0,-1.142483139E1,1.539900202E0,-7.883190415E0,1.396577087E1
1.490982125E0,-1.124561657E1,1.604053221E0,-7.723754970E0,1.373656688E1
1.501033125E0,-1.127397206E1,1.880281536E0,-7.762629599E0,1.381652355E1
1.511083125E0,-1.120909837E1,2.167151198E0,-7.800110251E0,1.382686337E1
1.521134125E0,-1.092142940E1,2.633743512E0,-7.600484555E0,1.356398136E1
1.531184125E0,-1.102577881E1,3.332143428E0,-7.501436815E0,1.374563685E1
1.541235125E0,-1.114582916E1,3.830445193E0,-7.344213957E0,1.388665895E1
1.551286125E0,-1.091229488E1,4.183246597E0,-6.845887926E0,1.354414682E1
1.561336125E0,-9.874491280E0,4.368619705E0,-6.755001145E0,1.273657947E1
1.571387125E0,-8.566025920E0,4.072141314E0,-6.522654430E0,1.151104495E1
1.581437125E0,-8.043432190E0,3.701680149E0,-4.916519015E0,1.012775378E1
1.591488125E0,-6.720958071E0,4.515853473E0,-8.653908402E-1,8.143286270E0
1.601539125E0,-3.165991872E0,7.818896770E0,8.508205728E0,1.198116088E1
1.611589125E0,4.628323204E0,1.211246395E1,2.357905850E1,2.690920212E1
1.621640125E0,1.951000335E1,1.285733608E1,3.915790275E1,4.559926172E1
1.631691125E0,3.787845011E1,7.842836441E0,4.948327400E1,6.280829143E1
1.641741125E0,4.827911244E1,-1.581212828E0,4.809677287E1,6.816650565E1
1.651792125E0,4.595050793E1,-4.130697670E0,4.374674848E1,6.357900475E1
1.661842125E0,3.982244349E1,-2.409686395E0,3.869310056E1,5.557688031E1
1.671893125E0,2.831283566E1,-5.104391223E0,2.887950570E1,4.076392182E1
1.681944125E0,1.885884689E1,-6.754602950E0,1.799075054E1,2.692485603E1
1.691994125E0,1.430867231E1,-8.454358719E0,1.006483803E1,1.942975165E1
1.702045125E0,1.130883082E1,-1.047056463E1,4.303602760E0,1.600135541E1
1.712095125E0,8.550174703E0,-1.221917681E1,1.801784420E-1,1.491463153E1
1.722146125E0,5.745855339E0,-1.376112968E1,-2.614580140E0,1.513999910E1
1.732197125E0,3.045598871E0,-1.478200207E1,-4.308677559E0,1.569547579E1
1.742247125E0,9.259539610E-1,-1.521094212E1,-5.367254557E0,1.615665722E1
1.752298125E0,-9.249225122E-1,-1.660696369E1,-6.054581308E0,1.770041467E1
1.762348125E0,-2.441774452E0,-1.794163276E1,-6.550765504E0,1.925557003E1
1.772399125E0,-3.489866223E0,-1.886183365E1,-6.977890574E0,2.041173416E1
1.782450125E0,-4.296624693E0,-1.967525151E1,-7.560351605E0,2.151128592E1
1.792500125E0,-5.274165714E0,-1.999636890E1,-8.371220668E0,2.231028751E1
1.802551125E0,-6.615082537E0,-1.955585137E1,-9.171917329E0,2.259014624E1
1.812602125E0,-7.888505534E0,-1.867012917E1,-9.694426859E0,2.246740205E1
1.822652125E0,-8.800296954E0,-1.778015839E1,-1.008377833E1,2.225447920E1
1.832703125E0,-9.172067603E0,-1.705885873E1,-1.020050045E1,2.189021916E1
1.842753125E0,-9.216811666E0,-1.635682214E1,-1.025833994E1,2.139459713E1
1.852804125E0,-9.184203499E0,-1.562836549E1,-1.041152412E1,2.090443102E1
1.862855125E0,-9.154265170E0,-1.465171909E1,-1.034595345E1,2.013733339E1
1.872905125E0,-8.837256619E0,-1.356663842E1,-9.765428429E0,1.890805053E1
1.882956125E0,-8.539044528E0,-1.260982929E1,-9.096319263E0,1.773883030E1
1.893006125E0,-8.081002305E0,-1.193550733E1,-8.291021428E0,1.662828824E1
1.903057125E0,-7.474500446E0,-1.110734746E1,-7.280198055E0,1.523950814E1
1.913108125E0,-6.750215199E0,-1.031243370E1,-6.186149508E0,1.379058156E1
1.923158125E0,-6.100207132E0,-9.882984946E0,-5.377927480E0,1.279875082E1
1.933209125E0,-6.023964118E0,-8.368123983E0,-4.938919698E0,1.143269743E1
1.943259125E0,-4.923067896E0,-7.699610063E0,-3.844615628E0,9.914719459E0
1.953310125E0,-4.582731294E0,-7.976828311E0,-2.856221589E0,9.632716013E0
1.963361125E0,-4.609663569E0,-7.885675482E0,-2.384435048E0,9.440254579E0
1.973411125E0,-3.958035824E0,-7.518517116E0,-2.051628928E0,8.740899752E0
1.983462125E0,-4.390691775E0,-6.704404603E0,-1.403763866E0,8.136201100E0
1.993512125E0,-4.629542641E0,-5.349707648E0,-5.196174967E-1,7.093802881E0
2.003563125E0,-4.692143224E0,-2.685518560E0,8.368406403E-1,5.470696503E0
2.013614125E0,-5.523265872E0,5.243245053E-1,3.176498149E0,6.393083964E0
2.023664125E0,-3.733688392E0,7.214281223E0,5.637859604E0,9.887959521E0
2.033715125E0,2.329353545E0,1.728101551E1,7.937116361E0,1.915873694E1
2.043766125E0,1.187789822E1,2.738316111E1,8.479188336E0,3.102931861E1
2.053816125E0,2.424842202E1,3.654545100E1,8.354668370E0,4.464702054E1
2.063867125E0,3.328086162E1,4.227104691E1,8.148034201E0,5.441367124E1
2.073917125E0,3.672758241E1,4.309660827E1,7.166256287E0,5.707528522E1
2.083968125E0,3.422278024E1,4.120997373E1,6.027243236E0,5.390536414E1
2.094019125E0,2.782430547E1,3.571196315E1,4.682147409E0,4.551328148E1
2.104069125E0,1.939443898E1,2.673371555E1,3.062931772E0,3.316952459E1
2.114120125E0,1.243418595E1,1.788945922E1,1.690510737E0,2.185176327E1
2.124171125E0,7.674890374E0,1.144449909E1,9.173451054E-1,1.381021447E1
2.134221125E0,4.463707419E0,6.312887322E0,2.889670587E-1,7.736971774E0
2.144272125E0,2.208555040E0,2.111029038E0,-1.417318205E-1,3.058471329E0
2.154322125E0,4.586693367E-1,-1.174793333E0,-3.923025620E-1,1.320764262E0
2.164373125E0,-9.997823676E-1,-3.607543777E0,-4.812819815E-1,3.774330303E0
2.174424125E0,-1.960897391E0,-5.258488160E0,-3.804116642E-1,5.625080385E0
2.184474125E0,-2.358056065E0,-6.580204480E0,-2.488504815E-1,6.994386747E0
2.194525125E0,-2.231292669E0,-7.618016261E0,-1.715415198E-1,7.939915946E0
2.204576125E0,-1.921846907E0,-8.515963229E0,-1.523731774E-1,8.731457085E0
2.214626125E0,-1.752392112E0,-9.242741729E0,-1.346876889E-1,9.408362958E0
2.224677125E0,-1.275337375E0,-1.004897570E1,-1.412242913E-1,1.013056476E1
2.234727125E0,-8.803431939E-1,-1.111447990E1,-2.674907837E-1,1.115249832E1
2.244778125E0,-4.598650923E-1,-1.223348144E1,-3.706905951E-1,1.224773267E1
2.254829125E0,-5.535886502E-1,-1.312847498E1,-6.257725275E-1,1.315503352E1
2.264879125E0,-8.662997898E-1,-1.358456014E1,-8.288550248E-1,1.363736595E1
2.274930125E0,-1.250516530E0,-1.383345623E1,-9.520307887E-1,1.392245185E1
2.284980125E0,-1.983877240E0,-1.413961995E1,-1.138590882E0,1.432344268E1
2.295031125E0,-2.643894571E0,-1.436479739E1,-1.261021053E0,1.466041461E1
2.305082125E0,-2.878134030E0,-1.449490963E1,-1.515916970E0,1.485543890E1
2.315132125E0,-3.852150350E0,-1.425911131E1,-1.526274728E0,1.484893370E1
2.325183125E0,-4.611493748E0,-1.383074429E1,-1.459636350E0,1.465216368E1
2.335234125E0,-4.667981359E0,-1.372039096E1,-1.488283029E0,1.456894520E1
2.345284125E0,-4.786652063E0,-1.371657156E1,-1.516329930E0,1.460669811E1
2.355331500E0,-4.961226826E0,-1.341593345E1,-1.922214258E0,1.443246167E1
2.365381500E0,-4.621679597E0,-1.267748859E1,-1.933816888E0,1.363151815E1
2.375432500E0,-4.450466399E0,-1.211855558E1,-2.428061562E0,1.313626749E1
2.385483500E0,-4.298609238E0,-1.180159673E1,-3.375093566E0,1.300565198E1
2.395533500E0,-4.293725644E0,-1.127748273E1,-4.321948984E0,1.281783678E1
2.405584500E0,-4.361963528E0,-1.111379344E1,-4.693766996E0,1.282866240E1
2.415635500E0,-4.344039473E0,-1.128128108E1,-4.682780077E0,1.296404300E1
2.425685500E0,-4.692140885E0,-1.139462351E1,-4.485869828E0,1.311398715E1
2.435736500E0,-5.152606779E0,-1.119690927E1,-4.044647121E0,1.297225131E1
2.445786500E0,-5.797955199E0,-1.029817936E1,-2.984756838E0,1.218923935E1
2.455837500E0,-7.189011896E0,-8.762639716E0,-2.422162891E0,1.159019499E1
2.465888500E0,-9.287885157E0,-6.839861201E0,-1.441542726E0,1.162439493E1
2.475938500E0,-1.274767389E1,-1.342645844E0,1.506569465E0,1.290641852E1
2.485989500E0,-1.644976597E1,8.669103561E0,5.419678938E0,1.936804267E1
2.496039500E0,-1.527863534E1,2.166889945E1,7.440224068E0,2.753788001E1
2.506090500E0,-6.257969688E0,3.651588514E1,7.843961445E0,3.786950994E1
2.516141500E0,5.946695502E0,4.709002267E1,6.697308422E0,4.793419826E1
2.526191500E0,1.969178510E1,5.130078509E1,4.576109322E0,5.514052709E1
2.536242500E0,3.048687253E1,5.084558169E1,2.575257615E0,5.934100207E1
2.546293500E0,3.248358675E1,4.597814421E1,1.422148681E0,5.631337017E1
2.556343500E0,2.716192118E1,3.946285376E1,1.659076690E0,4.793578334E1
2.566394500E0,1.937245929E1,3.107870431E1,1.492593012E0,3.665250162E1
2.576445500E0,1.397808360E1,2.173192775E1,-3.810262797E-1,2.584199462E1
2.586495500E0,1.054897930E1,1.340434895E1,-2.701732889E0,1.727011568E1
2.596546500E0,7.961263023E0,6.876687550E0,-4.438378742E0,1.141795719E1
2.606596500E0,6.051960002E0,2.113081995E0,-5.008589272E0,8.134943262E0
2.616647500E0,4.376190096E0,-1.427438657E0,-4.559904349E0,6.479301547E0
2.626698500E0,2.873064202E0,-4.442617389E0,-3.627171711E0,6.414649000E0
2.636748500E0,2.056687939E0,-7.274449657E0,-2.668131280E0,8.016639422E0
2.646799500E0,2.116293286E0,-1.020924672E1,-2.009695036E0,1.061820559E1
2.656850500E0,2.739701784E0,-1.281539868E1,-1.473528750E0,1.318755838E1
2.666900500E0,3.348365066E0,-1.493059620E1,-8.794703507E-1,1.532669956E1
2.676951500E0,4.111160953E0,-1.664579037E1,-3.246888685E-1,1.714903508E1
2.687001500E0,4.854764231E0,-1.793274850E1,-5.308124296E-2,1.857834821E1
2.697052500E0,4.641316009E0,-1.894355082E1,1.859495708E-1,1.950473044E1
2.707103500E0,3.572572165E0,-1.954924284E1,4.420412441E-1,1.987791659E1
2.717153500E0,1.950997031E0,-1.932540675E1,1.278773638E-1,1.942405952E1
2.727204500E0,3.950313114E-1,-1.855093953E1,-4.584474349E-1,1.856080767E1
2.737255500E0,-3.391162884E-1,-1.811854495E1,-3.538198431E-1,1.812517198E1
2.747305500E0,-5.846046209E-2,-1.752327968E1,5.792601196E-1,1.753294872E1
2.757356500E0,3.902887809E-1,-1.661304947E1,1.548358931E0,1.668961214E1
2.767407500E0,1.041425507E0,-1.565036739E1,2.397287081E0,1.586712173E1
2.777457500E0,1.433282072E0,-1.451262553E1,3.034494424E0,1.489559511E1
2.787508500E0,1.676570975E0,-1.347314144E1,3.347770697E0,1.398370477E1
2.797558500E0,1.890543253E0,-1.248521811E1,3.375366046E0,1.307088065E1
2.807609500E0,1.987950411E0,-1.160907248E1,3.543199847E0,1.229946242E1
2.817660500E0,2.030143627E0,-1.094095442E1,3.519781748E0,1.167111093E1
2.827710500E0,2.162964592E0,-1.054640185E1,3.219921327E0,1.123712157E1
2.837761500E0,2.108250441E0,-1.018358562E1,3.065691658E0,1.084198328E1
2.847812500E0,2.242255321E0,-9.696303815E0,2.847716814E0,1.035159445E1
2.857862500E0,2.160298262E0,-9.450389221E0,2.628980663E0,1.004431602E1
2.867913500E0,2.322525898E0,-9.111717321E0,2.309264266E0,9.682469754E0
2.877963500E0,2.525402792E0,-8.180907832E0,2.129323221E0,8.822637338E0
2.888014500E0,2.081942210E0,-7.642350619E0,2.014508464E0,8.173019681E0
2.898065500E0,1.774800397E0,-6.849586290E0,1.688629103E0,7.274490844E0
2.908115500E0,6.595276263E-1,-5.687143446E0,1.298356694E0,5.870630918E0
2.918166500E0,-7.749121946E-1,-4.546721801E0,7.901646566E-1,4.679479483E0
2.928217500E0,-2.475971601E0,-2.052585533E0,1.056851485E0,3.385332745E0
2.938267500E0,-4.515023168E0,1.888897993E0,2.429747314E0,5.464159757E0
2.948318500E0,-5.435034311E0,7.659137390E0,4.122007538E0,1.025636045E1
2.958369500E0,-5.227777998E0,1.416626922E1,5.172160453E0,1.596133109E1
2.968419500E0,-3.262822348E0,2.020363866E1,5.324434812E0,2.114669314E1
2.978470500E0,-1.678552888E-1,2.566109763E1,4.395206410E0,2.603532113E1
2.988520500E0,4.870102648E0,3.098766551E1,2.431177543E0,3.146210320E1
2.998571500E0,9.448878300E0,3.557579787E1,6.934446931E-1,3.681575153E1
3.008622500E0,1.267220037E1,3.903612396E1,-1.339614282E-1,4.104170540E1
3.018672500E0,1.376467777E1,3.931315568E1,-8.602464598E-1,4.166210014E1
3.028723500E0,1.238938692E1,3.548562211E1,-2.340317075E0,3.765904100E1
3.038774500E0,9.101726768E0,2.921757767E1,-3.131157085E0,3.076219140E1
3.048824500E0,5.218202598E0,2.212272992E1,-2.826157545E0,2.290484630E1
3.058875500E0,2.875613588E0,1.662600573E1,-1.558460142E0,1.694467521E1
3.068926500E0,1.937951308E0,1.253890022E1,-1.021280168E-1,1.268818759E1
3.078976500E0,1.951284714E0,8.197492290E0,7.644228745E-1,8.461130788E0
3.089027500E0,2.308965766E0,3.990548097E0,1.335471311E0,4.799925067E0
3.099077500E0,2.764808559E0,2.713634312E-1,1.629323718E0,3.220636623E0
3.109128500E0,3.122288613E0,-3.100870262E0,1.737197245E0,4.730955171E0
3.119179500E0,3.410059916E0,-6.326834686E0,1.697564818E0,7.385057351E0
3.129229500E0,3.655145960E0,-9.386666265E0,1.505156924E0,1.018504261E1
3.139280500E0,3.935678995E0,-1.205762643E1,1.193052433E0,1.273967418E1
3.149331500E0,4.213290761E0,-1.430617555E1,8.833318520E-1,1.493983778E1
3.159381500E0,3.815665478E0,-1.611088006E1,6.574620974E-1,1.656961122E1
3.169432500E0,2.707692372E0,-1.723202519E1,4.016733098E-1,1.744808390E1
3.179483500E0,1.514305332E0,-1.790168108E1,9.051138997E-2,1.796584254E1
3.189533500E0,6.185757744E-1,-1.839677769E1,-1.618357082E-1,1.840788570E1
3.199584500E0,-9.773971796E-2,-1.866489825E1,-1.636191090E-1,1.866587129E1
3.209634500E0,-2.999156776E-1,-1.851629361E1,7.352877337E-2,1.851886835E1
3.219685500E0,-2.252113581E-2,-1.790695760E1,3.555353431E-1,1.791050092E1
3.229736500E0,3.531759185E-1,-1.677826957E1,7.103104019E-1,1.679701175E1
3.239786500E0,7.242068946E-1,-1.558242275E1,9.481517458E-1,1.562803142E1
3.249837500E0,1.292668815E0,-1.436737601E1,9.835226496E-1,1.445890048E1
3.259888500E0,1.647060077E0,-1.356763596E1,9.205200704E-1,1.369820826E1
3.269938500E0,2.134798700E0,-1.313986535E1,5.764582070E-1,1.332462874E1
3.279989500E0,2.485610736E0,-1.273971934E1,2.249130770E-1,1.298188335E1
3.290040500E0,2.594745800E0,-1.216959944E1,-5.821721792E-2,1.244328114E1
3.300090500E0,2.670698208E0,-1.163459090E1,-3.934463505E-1,1.194366503E1
3.310141500E0,2.589107915E0,-1.109988408E1,-6.207217026E-1,1.141473617E1
3.320191500E0,2.505979219E0,-1.051643253E1,-6.138594103E-1,1.082830127E1
3.330242500E0,2.399940986E0,-1.009951436E1,-5.629816175E-1,1.039600189E1
3.340293500E0,2.133285587E0,-9.965208492E0,-5.546961860E-1,1.020607542E1
3.350349958E0,1.872597125E0,-9.586633438E0,-4.390334729E-1,9.777674113E0
3.360400958E0,1.663141236E0,-9.085594885E0,-3.195631993E-1,9.242088174E0
3.370451958E0,1.468127677E0,-8.537776267E0,-4.052798724E-1,8.672558690E0
3.380501958E0,7.944873570E-1,-7.794445469E0,-3.511475194E-1,7.842696915E0
3.390552958E0,-5.728390729E-1,-6.495757822E0,-2.977904340E-1,6.527763279E0
3.400603958E0,-2.370764696E0,-4.083322359E0,-1.319038296E-1,4.723499270E0
3.410653958E0,-5.581688327E0,4.869912028E-2,1.214454997E0,5.712487823E0
3.420704958E0,-8.988727571E0,5.346064247E0,3.380167195E0,1.099104893E1
3.430755958E0,-1.078682064E1,1.216413814E1,5.111507285E0,1.704257208E1
3.440805958E0,-9.193062031E0,2.049095914E1,5.168665572E0,2.304575666E1
3.450856958E0,-2.550403440E0,2.835973032E1,4.517955254E0,2.883037949E1
3.460907958E0,7.320000637E0,3.289085234E1,4.560055792E0,3.400271586E1
3.470957958E0,1.559787694E1,3.436010561E1,5.397626749E0,3.811882733E1
3.481008958E0,2.036915930E1,3.548200386E1,7.422897599E0,4.158094103E1
3.491058958E0,2.046964721E1,3.604909022E1,9.440484622E0,4.251665688E1
3.501109958E0,1.726817385E1,3.358921571E1,9.885524976E0,3.904034893E1
3.511160958E0,1.349201625E1,2.833296177E1,8.351494501E0,3.247366142E1
3.521210958E0,1.029334722E1,2.230350244E1,5.800601649E0,2.523977412E1
3.531261958E0,7.671908879E0,1.727148221E1,3.296850804E0,1.918414733E1
3.541312958E0,5.259404418E0,1.294564775E1,1.078283869E0,1.401477173E1
3.551362958E0,3.237276740E0,8.657995605E0,-6.771730614E-1,9.268193565E0
3.561413958E0,1.903180694E0,4.057068361E0,-2.441265745E0,5.103104827E0
3.571464958E0,1.145769216E0,-4.213977224E-1,-3.610998897E0,3.811781233E0
3.581514958E0,1.197411240E0,-4.295477470E0,-4.020588167E0,6.004169350E0
3.591565958E0,1.752366385E0,-7.965118092E0,-4.032494268E0,9.098071454E0
3.601616958E0,2.350569875E0,-1.120150284E1,-4.045248799E0,1.213931145E1
3.611666958E0,2.671564180E0,-1.415071445E1,-4.297378984E0,1.502822148E1
3.621717958E0,2.671206623E0,-1.636117949E1,-4.372853090E0,1.714483547E1
3.631768958E0,1.962667927E0,-1.764485499E1,-4.219183584E0,1.824813643E1
3.641818958E0,6.016185567E-1,-1.818972193E1,-4.001125710E0,1.863429462E1
3.651869958E0,-6.527922917E-1,-1.822455965E1,-3.610454521E0,1.859021500E1
3.661919958E0,-1.331969121E0,-1.820227240E1,-2.900922968E0,1.848004914E1
3.671970958E0,-1.589089612E0,-1.844100720E1,-2.239046223E0,1.864428278E1
3.682021958E0,-1.823993022E0,-1.844178371E1,-1.657480985E0,1.860574051E1
3.692071958E0,-2.365111900E0,-1.797987472E1,-1.211823750E0,1.817520746E1
3.702122958E0,-2.394952288E0,-1.797217511E1,-1.330156192E0,1.817977420E1
3.712173958E0,-1.947792026E0,-1.787731690E1,-1.288600030E0,1.802922193E1
3.722223958E0,-1.290829281E0,-1.784217162E1,-9.805628622E-1,1.791565885E1
3.732274958E0,-6.211630212E-1,-1.736161353E1,-5.666594430E-1,1.738196107E1
3.742325958E0,2.228055577E-1,-1.684231295E1,-8.590604983E-2,1.684400569E1
3.752375958E0,1.009116863E0,-1.617962227E1,2.739408839E-1,1.621337526E1
3.762426958E0,1.693062462E0,-1.535726285E1,6.204340196E-1,1.546275916E1
3.772477958E0,2.013220323E0,-1.438588128E1,9.282044081E-1,1.455569303E1
3.782527958E0,1.754722520E0,-1.328289176E1,1.271695729E0,1.345850937E1
3.792578958E0,1.549466247E0,-1.234603800E1,1.560036113E0,1.254030353E1
3.802629958E0,1.243982559E0,-1.155975590E1,1.740507062E0,1.175605435E1
3.812679958E0,1.143691847E0,-1.088835754E1,1.890454522E0,1.111027359E1
3.822730958E0,9.945195081E-1,-1.029584281E1,2.032497131E0,1.054156026E1
3.832781958E0,9.691784064E-1,-9.756662284E0,2.031741671E0,1.001297857E1
3.842831958E0,7.488096392E-1,-9.214075754E0,1.879038126E0,9.433487805E0
3.852882958E0,1.814307694E-1,-8.457864125E0,1.532485933E0,8.597493577E0
3.862932958E0,-5.500518157E-1,-7.207247023E0,1.129958345E0,7.315994294E0
3.872983958E0,-1.787462250E0,-5.092002143E0,1.019581917E0,5.492090167E0
3.883034958E0,-3.602447344E0,-2.324619640E0,1.558226546E0,4.561748930E0
3.893084958E0,-4.553863590E0,3.151080303E0,2.868027995E0,6.236390403E0
3.903135958E0,-3.210691497E0,1.238739302E1,4.067977219E0,1.342775053E1
3.913186958E0,2.595701235E0,2.609733968E1,4.846540707E0,2.667016610E1
3.923236958E0,1.422561144E1,3.966329164E1,4.939109148E0,4.242569414E1
3.933287958E0,2.511101497E1,4.577832848E1,4.640291285E0,5.241899211E1
3.943338958E0,3.080489090E1,4.851332384E1,4.929299859E0,5.767826185E1
3.953388958E0,3.095547541E1,5.014413567E1,4.896569484E0,5.913249693E1
3.963439958E0,2.602258887E1,4.642452065E1,4.323380967E0,5.339571961E1
3.973490958E0,1.790093029E1,3.652197560E1,2.523372931E0,4.075126278E1
3.983540958E0,1.094303603E1,2.667962178E1,3.860086191E-1,2.883923124E1
3.993591958E0,6.518452621E0,2.015738017E1,-8.887674236E-1,2.120377578E1
4.003642958E0,3.482069838E0,1.479679670E1,-1.609165442E0,1.528592216E1
4.013692958E0,1.092443486E0,9.993034222E0,-2.280629282E0,1.030802773E1
4.023743958E0,-6.327289599E-1,6.488966866E0,-2.661113452E0,7.041914635E0
4.033794958E0,-1.788193737E0,3.881762404E0,-2.687593153E0,5.048650627E0
4.043844958E0,-2.281071916E0,1.678932665E0,-2.794229409E0,3.978670880E0
4.053895958E0,-2.137310226E0,-3.754877239E-1,-3.044133559E0,3.738426829E0
4.063945958E0,-1.521361898E0,-2.381775003E0,-3.333521617E0,4.370327283E0
4.073996958E0,-7.633326611E-1,-4.327966354E0,-3.685861384E0,5.735812379E0
4.084047958E0,-3.602791160E-1,-6.498311301E0,-4.505354505E0,7.915558731E0
4.094097958E0,-2.742376301E-1,-8.910856107E0,-5.248960707E0,1.034553775E1
4.104148958E0,-1.998597313E-1,-1.062699051E1,-5.497004857E0,1.196619963E1
4.114199958E0,-1.149145983E-1,-1.250306732E1,-5.574813171E0,1.369008545E1
4.124249958E0,-1.452128233E-1,-1.412275658E1,-5.475509908E0,1.514775722E1
4.134300958E0,-4.207853727E-1,-1.549428182E1,-5.262307561E0,1.636892514E1
4.144351958E0,-1.019402992E0,-1.649662439E1,-5.012828504E0,1.727154447E1
4.154401958E0,-1.898009124E0,-1.737442478E1,-4.794511013E0,1.812347679E1
4.164452958E0,-2.753858478E0,-1.801311965E1,-4.630794237E0,1.880160821E1
4.174503958E0,-3.668631393E0,-1.801644321E1,-4.157901256E0,1.885044363E1
4.184553958E0,-4.483270156E0,-1.775541414E1,-3.489261037E0,1.864214004E1
4.194604958E0,-4.819347062E0,-1.717454940E1,-2.923037723E0,1.807582371E1
4.204655958E0,-4.998585856E0,-1.637235469E1,-2.417474594E0,1.728826313E1
4.214705958E0,-5.013848258E0,-1.544856127E1,-1.914443893E0,1.635425985E1
4.224756958E0,-4.987971405E0,-1.446592031E1,-1.409278375E0,1.536648218E1
4.234807958E0,-4.948251269E0,-1.376262189E1,-1.087873449E0,1.466555217E1
4.244857958E0,-4.623181747E0,-1.321434719E1,-8.623426867E-1,1.402627591E1
4.254908958E0,-4.263275976E0,-1.284817115E1,-7.262838256E-1,1.355649336E1
4.264959958E0,-3.977449164E0,-1.259472476E1,-5.810218857E-1,1.322061950E1
4.275009958E0,-3.826594801E0,-1.230494845E1,-4.923588006E-1,1.289561946E1
4.285060958E0,-3.534583974E0,-1.197395160E1,-4.216123152E-1,1.249185966E1
4.295111958E0,-3.474907584E0,-1.166834571E1,-2.648145497E-1,1.217765991E1
4.305161958E0,-3.378627331E0,-1.136772866E1,-2.532394016E-1,1.186189309E1
4.315212958E0,-3.465720146E0,-1.098570433E1,-1.441603245E-1,1.152031675E1
4.325262958E0,-3.877441019E0,-1.063683839E1,-2.030295070E-1,1.132334318E1
4.335313958E0,-4.669608932E0,-1.013181672E1,-4.975093205E-1,1.116720525E1
4.345364958E0,-5.533233036E0,-9.360026350E0,-3.649389084E-1,1.087933553E1
4.355408458E0,-7.648803021E0,-8.313143198E0,4.926556930E-2,1.129667936E1
4.365459458E0,-1.067795601E1,-6.846762670E0,1.046383653E0,1.272760081E1
4.375510458E0,-1.451019893E1,-1.915963000E0,3.809331774E0,1.512374940E1
4.385560458E0,-1.093405470E1,1.017049020E1,5.983052319E0,1.608693067E1
4.395611458E0,4.290983300E0,2.645986237E1,4.950206578E0,2.725878573E1
4.405662458E0,2.391738074E1,3.987842239E1,1.839904758E0,4.653724233E1
4.415712458E0,4.130981143E1,4.459788790E1,-1.331534965E0,6.080497604E1
4.425763458E0,4.959293502E1,4.549206751E1,-3.196098601E0,6.737360356E1
4.435814458E0,4.749401381E1,4.200413788E1,-4.143652761E0,6.353895503E1
4.445864458E0,3.511004376E1,3.835145243E1,-3.449704842E-1,5.199680837E1
4.455915458E0,1.938262877E1,2.970664113E1,2.456401847E0,3.555565687E1
4.465966458E0,8.170303906E0,1.889383429E1,2.109622782E0,2.069254330E1
4.476016458E0,2.559245015E0,1.122508466E1,8.274902847E-1,1.154283331E1
4.486067458E0,2.099907634E-1,7.007220207E0,2.428224407E-2,7.010408033E0
4.496118458E0,-9.022470099E-1,4.272033058E0,-5.275270253E-1,4.398022383E0
4.506168458E0,-1.888743919E0,1.920060729E0,-7.876240414E-1,2.806125162E0
4.516219458E0,-3.379567856E0,-9.212709260E-1,-1.009068038E0,3.645330893E0
4.526270458E0,-5.479773113E0,-4.721033732E0,-1.605722601E0,7.409076726E0
4.536320458E0,-7.936707641E0,-9.655587898E0,-2.584268174E0,1.276323422E1
4.546371458E0,-1.009786778E1,-1.421917015E1,-3.159590925E0,1.772384688E1
4.556422458E0,-1.176248237E1,-1.758755929E1,-3.314528106E0,2.141644999E1
4.566472458E0,-1.295771172E1,-2.010252861E1,-3.626959457E0,2.419026218E1
4.576523458E0,-1.373517389E1,-2.170033876E1,-3.806739703E0,2.596249162E1
4.586574458E0,-1.387656541E1,-2.214306420E1,-3.512780292E0,2.636691080E1
4.596624458E0,-1.326165233E1,-2.194105927E1,-3.191464097E0,2.583538170E1
4.606675458E0,-1.269785795E1,-2.121300608E1,-2.826062236E0,2.488400794E1
4.616726458E0,-1.169411205E1,-2.018745123E1,-2.385906061E0,2.345160957E1
4.626776458E0,-1.042469439E1,-1.906752700E1,-2.097569917E0,2.183219271E1
4.636827458E0,-8.857313154E0,-1.785579447E1,-1.961905743E0,2.002824172E1
4.646878458E0,-7.161556880E0,-1.641850442E1,-1.698999724E0,1.799282591E1
4.656928458E0,-5.473570386E0,-1.459839249E1,-1.569055882E0,1.566955559E1
4.666979458E0,-3.763842483E0,-1.236566827E1,-1.409976532E0,1.300247268E1
4.677030458E0,-2.129537230E0,-9.697034132E0,-1.295255331E0,1.001224681E1
4.687080458E0,-5.157375768E-1,-6.695040872E0,-1.351428362E0,6.849519410E0
4.697131458E0,6.616679996E-1,-3.794057093E0,-1.581019139E0,4.163207331E0
4.707182458E0,1.540404232E0,-7.320661372E-1,-1.996018253E0,2.625424707E0
4.717232458E0,2.563443900E0,2.845106617E0,-2.194685883E0,4.413901043E0
4.727283458E0,3.290829634E0,5.706905281E0,-2.517456719E0,7.052369523E0
4.737334458E0,3.562417013E0,7.322510262E0,-2.941618128E0,8.658122702E0
4.747384458E0,3.411106567E0,7.821116374E0,-3.308670658E0,9.151656182E0
4.757435458E0,2.754099383E0,7.407898321E0,-3.255808028E0,8.547649201E0
4.767486458E0,1.499106225E0,6.087957800E0,-2.830680367E0,6.879193339E0
4.777536458E0,-3.868137807E-2,4.068255254E0,-2.229146741E0,4.639104682E0
4.787587458E0,-1.539678008E0,2.010476224E0,-1.245916233E0,2.822220806E0
4.797638458E0,-2.568263760E0,5.092188084E-1,-2.032103321E-1,2.626133465E0
4.807688458E0,-2.695002159E0,4.459840947E-1,9.106441963E-1,2.879446354E0
4.817739458E0,-1.605283768E0,1.607987228E0,1.796272835E0,2.896403804E0
4.827790458E0,1.279938257E0,4.155594530E0,2.048545107E0,4.806635506E0
4.837840458E0,5.685247779E0,7.810967361E0,1.888411943E0,9.843746903E0
4.847891458E0,1.098862326E1,1.162788064E1,1.358635933E0,1.605625550E1
4.857941458E0,1.668947258E1,1.517366963E1,4.532716258E-1,2.256067818E1
4.867992458E0,2.164370263E1,1.775967560E1,-4.980706532E-1,2.800185735E1
4.878043458E0,2.428512616E1,1.824124292E1,-1.152217379E0,3.039470186E1
4.888093458E0,2.390063431E1,1.726968828E1,-1.065593949E0,2.950623568E1
4.898144458E0,2.142180781E1,1.588151017E1,-2.620909166E-1,2.666805030E1
4.908195458E0,1.803227279E1,1.403678029E1,8.752011524E-1,2.286831957E1
4.918246458E0,1.449445472E1,1.215787226E1,1.893728378E0,1.901287150E1
4.928296458E0,1.134679679E1,1.024498373E1,2.552257007E0,1.549914529E1
4.938347458E0,9.086669018E0,8.538452790E0,2.882663283E0,1.279775283E1
4.948398458E0,7.372784622E0,7.035089791E0,2.903206891E0,1.059618100E1
4.958448458E0,5.870308646E0,5.652455424E0,2.825438923E0,8.625188753E0
4.968499458E0,4.413107369E0,4.378071730E0,2.779359063E0,6.809395385E0
4.978550458E0,2.965232400E0,2.930784699E0,2.670787085E0,4.951283247E0
4.988600458E0,1.477116309E0,1.095081165E0,2.548315107E0,3.142448923E0
4.998651458E0,-1.281955254E-1,-1.205775974E0,2.147123315E0,2.465860565E0
5.008701458E0,-2.207775314E0,-3.394463637E0,1.626206860E0,4.363622804E0
5.018752458E0,-3.608374374E0,-5.487122478E0,1.435640108E0,6.722346408E0
5.028803458E0,-5.328308008E0,-7.877780571E0,6.493449926E-1,9.532677581E0
5.038854458E0,-7.369330087E0,-1.038515318E1,-5.298993869E-1,1.274516480E1
5.048904458E0,-9.032261261E0,-1.247897094E1,-1.760909020E0,1.550507207E1
5.058955458E0,-1.036719521E1,-1.390589387E1,-2.362810729E0,1.750529907E1
5.069006458E0,-1.123312809E1,-1.479228265E1,-2.241636540E0,1.870881415E1
5.079056458E0,-1.134723416E1,-1.511949401E1,-1.691106276E0,1.897942735E1
5.089107458E0,-1.103238382E1,-1.489822367E1,-7.763675666E-1,1.855460342E1
5.099158458E0,-1.054175799E1,-1.435575409E1,2.805859521E-1,1.781277815E1
5.109208458E0,-9.976051569E0,-1.365954132E1,1.151241918E0,1.695376159E1
5.119259458E0,-9.329117968E0,-1.257929513E1,1.723116565E0,1.575564149E1
5.129310458E0,-8.711024004E0,-1.114988947E1,1.947533579E0,1.428267697E1
5.139360458E0,-8.112198370E0,-9.657177172E0,1.827344061E0,1.274394051E1
5.149411458E0,-7.364040695E0,-8.092345904E0,1.469891197E0,1.103973449E1
5.159461458E0,-6.504472513E0,-6.729627153E0,8.915582997E-1,9.401644563E0
5.169512458E0,-5.771188400E0,-5.654816530E0,3.684245798E-1,8.088219965E0
5.179563458E0,-5.351115657E0,-4.932184875E0,3.898250967E-2,7.277527468E0
5.189613458E0,-5.193091146E0,-4.593400708E0,-6.428575069E-2,6.933372799E0
5.199664458E0,-5.200090263E0,-4.607289015E0,3.119635731E-2,6.947591239E0
5.209715458E0,-5.250200901E0,-4.897028491E0,1.393463118E-1,7.180871461E0
5.219766458E0,-5.270156279E0,-5.245105053E0,3.179134074E-1,7.442227029E0
5.229816458E0,-5.111685040E0,-5.436831161E0,4.602074468E-1,7.476646836E0
5.239867458E0,-4.823512618E0,-5.444603280E0,7.709603539E-1,7.314667369E0
5.249918458E0,-4.559169061E0,-4.845934936E0,1.293088499E0,6.777992756E0
5.259968458E0,-4.206925482E0,-3.151510658E0,1.826551033E0,5.564757866E0
5.270019458E0,-3.725480655E0,-5.414346278E-2,2.040665545E0,4.248111756E0
5.280070458E0,-2.280838320E0,6.274395686E0,2.080174158E0,6.992666816E0
5.290120458E0,1.305297924E0,1.561756568E1,1.712891247E0,1.576534671E1
5.300171458E0,8.001568465E0,2.666433950E1,1.337865161E0,2.787116758E1
5.310222458E0,1.677908116E1,3.506674629E1,5.240862313E-1,3.887787194E1
5.320272458E0,2.421906432E1,3.878943227E1,-1.198792937E0,4.574516627E1
5.330323458E0,2.859697291E1,3.777260615E1,-3.445380607E0,4.750186610E1
5.340374458E0,2.874004726E1,3.413973808E1,-3.910041293E0,4.479732644E1
5.350424458E0,2.472574193E1,2.798472500E1,-2.733202604E0,3.744299058E1
5.360475750E0,1.902199239E1,2.035793499E1,-1.899052999E0,2.792647693E1
5.370526750E0,1.413517372E1,1.299873813E1,-1.906788719E0,1.929782818E1
5.380576750E0,1.070004562E1,7.162919866E0,-2.420038598E0,1.310171684E1
5.390627750E0,8.271754267E0,2.688985375E0,-2.757938665E0,9.124625290E0
5.400678750E0,6.645543607E0,-5.479186052E-1,-2.979913005E0,7.303652932E0
5.410728750E0,5.253006395E0,-2.810270661E0,-2.903231449E0,6.627250578E0
5.420779750E0,3.895729063E0,-4.742137502E0,-2.572524626E0,6.654506441E0
5.430830750E0,2.654303784E0,-6.685978273E0,-2.232426006E0,7.532022299E0
5.440880750E0,1.668084911E0,-8.556245867E0,-2.027253056E0,8.949950031E0
5.450931750E0,1.241547778E0,-1.035475935E1,-2.160757853E0,1.065041580E1
5.460982750E0,1.076370002E0,-1.192061798E1,-2.570240704E0,1.224197054E1
5.471032750E0,8.281383023E-1,-1.292430658E1,-2.792574062E0,1.324847099E1
5.481083750E0,6.259450934E-1,-1.368497554E1,-3.117294506E0,1.404947998E1
5.491134750E0,3.837936938E-1,-1.440962799E1,-3.403186514E0,1.481102140E1
5.501184750E0,1.657899061E-1,-1.488841438E1,-3.649443755E0,1.533006226E1
5.511235750E0,-1.003446891E-1,-1.501636316E1,-3.815670156E0,1.549388816E1
5.521286750E0,-4.222996554E-1,-1.490046082E1,-3.877995628E0,1.540262704E1
5.531336750E0,-8.015319362E-1,-1.485515542E1,-3.964425661E0,1.539593345E1
5.541387750E0,-1.306560338E0,-1.474693515E1,-4.177815703E0,1.538289116E1
5.551438750E0,-1.679243445E0,-1.451278457E1,-4.342103752E0,1.524121516E1
5.561488750E0,-1.909510451E0,-1.411217078E1,-4.315756783E0,1.488036797E1
5.571539750E0,-1.991595711E0,-1.364671604E1,-4.240727066E0,1.442855080E1
5.581590750E0,-2.042338580E0,-1.312687986E1,-4.156463426E0,1.391985308E1
5.591640750E0,-2.067927457E0,-1.256591202E1,-4.045468070E0,1.336204628E1
5.601691750E0,-2.019565283E0,-1.177270915E1,-3.902536976E0,1.256603038E1
5.611742750E0,-2.066472816E0,-1.125327760E1,-4.069210689E0,1.214351852E1
5.621792750E0,-2.315981840E0,-1.059753224E1,-4.420617240E0,1.171380887E1
5.631843750E0,-2.669295168E0,-9.148278206E0,-4.417164459E0,1.050368853E1
5.641894750E0,-3.118498448E0,-8.063774654E0,-4.505994775E0,9.749537586E0
5.651944750E0,-2.770261964E0,-7.254993047E0,-4.489684551E0,8.970314534E0
5.661995750E0,-1.873777970E0,-6.014946542E0,-3.800474412E0,7.357596859E0
5.672046750E0,-5.800011811E-1,-3.562480456E0,-2.325026606E0,4.293415550E0
5.682096750E0,-1.820853652E-1,-1.189204965E0,-1.216143526E0,1.710663207E0
5.692147750E0,-6.977050475E-1,3.968224597E-1,-6.247978697E-1,1.017169001E0
5.702198750E0,-1.627837648E0,2.759699847E0,1.122348632E0,3.394917540E0
5.712249750E0,-2.187936881E0,6.703331054E0,3.615209477E0,7.924105917E0
5.722299750E0,-9.357281667E-1,1.081523343E1,5.274125369E0,1.206902067E1
5.732350750E0,1.246099397E0,1.478274701E1,6.020366326E0,1.601022122E1
5.742401750E0,3.791526418E0,1.822601677E1,5.989615234E0,1.955604384E1
5.752451750E0,6.340984363E0,2.127064091E1,4.970737907E0,2.274547170E1
5.762502750E0,8.445235893E0,2.358449407E1,3.458057370E0,2.528850590E1
5.772553750E0,9.533192811E0,2.529178515E1,2.823922740E0,2.717592134E1
5.782603750E0,8.557266791E0,2.553249865E1,3.028864725E0,2.709814244E1
5.792654750E0,5.891090820E0,2.426462583E1,3.491611032E0,2.521246448E1
5.802705750E0,2.787945699E0,2.215890080E1,3.866220505E0,2.266577126E1
5.812755750E0,6.408957660E-2,1.949855099E1,4.053195750E0,1.991547122E1
5.822806750E0,-1.263670426E0,1.681921528E1,4.066146748E0,1.734982464E1
5.832857750E0,-1.538541310E0,1.448573886E1,4.200181888E0,1.516064865E1
5.842907750E0,-1.195864944E0,1.231790354E1,4.404919220E0,1.313636761E1
5.852958750E0,-7.813388693E-1,1.019719326E1,4.616242856E0,1.122064789E1
5.863009750E0,-5.112358055E-1,7.823452921E0,4.723805312E0,9.153257031E0
5.873059750E0,-2.240486392E-1,5.269515424E0,4.721374624E0,7.078797139E0
5.883110750E0,2.669970229E-1,2.507380212E0,4.639887827E0,5.280795583E0
5.893161750E0,9.473401523E-1,-6.951813161E-1,4.403728142E0,4.557801222E0
5.903211750E0,1.509370428E0,-4.116753815E0,3.964935538E0,5.911562812E0
5.913262750E0,1.960067524E0,-7.488696901E0,3.314065007E0,8.420538751E0
5.923313750E0,2.069612040E0,-1.060989676E1,2.657053730E0,1.113162782E1
5.933363750E0,1.710256638E0,-1.317218642E1,1.938997521E0,1.342353099E1
5.943414750E0,1.013713651E0,-1.536913503E1,1.340615691E0,1.546076251E1
5.953465750E0,4.088022351E-2,-1.691331686E1,9.798249435E-1,1.694172409E1
5.963516750E0,-1.396691512E0,-1.785904552E1,6.918770546E-1,1.792693359E1
5.973566750E0,-3.034373094E0,-1.842736915E1,9.808236480E-2,1.867578577E1
5.983617750E0,-4.190225834E0,-1.868887535E1,-4.586410508E-1,1.915835081E1
5.993668750E0,-5.006557365E0,-1.846438437E1,-8.065228271E-1,1.914809614E1
6.003718750E0,-5.203812600E0,-1.819334487E1,-1.394640455E0,1.897425849E1
6.013769750E0,-5.208380445E0,-1.739055023E1,-1.915385295E0,1.825451081E1
6.023820750E0,-4.948907912E0,-1.640607324E1,-2.336921012E0,1.729485844E1
6.033870750E0,-4.588772637E0,-1.573238044E1,-2.636876158E0,1.659872720E1
6.043921750E0,-4.643638524E0,-1.474833965E1,-2.736127966E0,1.570233414E1
6.053972750E0,-4.562693178E0,-1.379889567E1,-2.858647599E0,1.481214221E1
6.064022750E0,-4.387455926E0,-1.315985815E1,-2.949172438E0,1.418200459E1
6.074073750E0,-4.177398797E0,-1.257352626E1,-2.973020892E0,1.357877302E1
6.084124750E0,-4.045398780E0,-1.186888649E1,-3.163064756E0,1.293215746E1
6.094174750E0,-4.224218037E0,-1.124538736E1,-3.327624115E0,1.246498444E1
6.104225750E0,-4.034615053E0,-1.048407170E1,-3.439308858E0,1.174830726E1
6.114276750E0,-3.709195867E0,-9.682514327E0,-3.423720181E0,1.091929840E1
6.124326750E0,-3.566412708E0,-9.053345152E0,-3.487077101E0,1.033644353E1
6.134377750E0,-3.509639460E0,-8.241400201E0,-3.461537048E0,9.603149752E0
6.144428750E0,-3.196946155E0,-7.229980997E0,-3.372802627E0,8.594701129E0
6.154478750E0,-2.199597398E0,-6.048752219E0,-3.355973171E0,7.258662965E0
6.164529750E0,-1.633106282E0,-4.237638566E0,-3.095491993E0,5.496061083E0
6.174580750E0,-1.206819118E0,-1.551240585E0,-2.593502097E0,3.254076346E0
6.184630750E0,-6.265294495E-1,2.838537270E0,-1.387939254E0,3.221212250E0
6.194681750E0,-1.449401969E-1,9.049099488E0,1.228902882E0,9.133313282E0
6.204732750E0,1.454405139E0,1.680485335E1,4.816972215E0,1.754199566E1
6.214782750E0,7.587842875E0,2.363156650E1,7.868966478E0,2.603741401E1
6.224833750E0,1.577957332E1,2.751729624E1,9.546012831E0,3.312586433E1
6.234884750E0,2.226819929E1,2.962887550E1,1.147083261E1,3.879849177E1
6.244935750E0,2.586927956E1,2.958130723E1,1.358685809E1,4.157975559E1
6.254985750E0,2.653210589E1,2.924082620E1,1.385080024E1,4.184283962E1
6.265036750E0,2.399249641E1,2.556085530E1,1.367133516E1,3.762848140E1
6.275087750E0,1.927394774E1,2.096732946E1,1.153772943E1,3.072837723E1
6.285137750E0,1.410317074E1,1.704336127E1,9.882055238E0,2.422871446E1
6.295188750E0,1.009859751E1,1.290712044E1,7.791608984E0,1.814620072E1
6.305239750E0,7.546707712E0,1.045602144E1,5.315538858E0,1.394762112E1
6.315289750E0,5.680497501E0,7.659603413E0,3.797122203E0,1.026429312E1
6.325340750E0,4.410919048E0,5.671967583E0,2.411951314E0,7.579243514E0
6.335391750E0,3.437542414E0,3.816798669E0,1.053977578E0,5.243616944E0
6.345441750E0,2.289980734E0,1.571174912E0,-3.185808671E-1,2.795370483E0
6.355492458E0,1.233171642E0,-9.426816756E-1,-1.693016269E0,2.296881609E0
6.365543458E0,3.567970991E-3,-3.655595026E0,-3.368558133E0,4.970972905E0
6.375593458E0,-1.259948673E0,-6.160457427E0,-4.938702182E0,7.995591636E0
6.385644458E0,-2.526736835E0,-8.305424289E0,-6.378679608E0,1.077274455E1
6.395695458E0,-3.787071132E0,-1.006671849E1,-7.574430531E0,1.315495066E1
6.405745458E0,-5.131335778E0,-1.157815124E1,-8.367766133E0,1.517905475E1
6.415796458E0,-6.162965882E0,-1.273847856E1,-9.075222509E0,1.681102757E1
6.425847458E0,-7.010817999E0,-1.341316889E1,-9.869180839E0,1.806835353E1
6.435898458E0,-8.140887734E0,-1.372016175E1,-1.026484087E1,1.897060488E1
6.445948458E0,-9.315888058E0,-1.333291352E1,-1.023502475E1,1.921739017E1
6.455999458E0,-1.004048438E1,-1.276403674E1,-1.016815833E1,1.916046461E1
6.466050458E0,-1.050209866E1,-1.239790514E1,-1.009488804E1,1.912874520E1
6.476100458E0,-1.062644906E1,-1.172593026E1,-9.861468362E0,1.864584185E1
6.486151458E0,-1.026254292E1,-1.090607695E1,-9.471676594E0,1.771933856E1
6.496202458E0,-9.765281079E0,-1.035998677E1,-9.056938266E0,1.687359390E1
6.506252458E0,-9.327585998E0,-9.654817820E0,-8.302307723E0,1.578441260E1
6.516303458E0,-8.783138884E0,-8.675703898E0,-7.696077175E0,1.454788544E1
6.526354458E0,-8.403699612E0,-7.476646374E0,-7.208255668E0,1.335969154E1
6.536404458E0,-7.221945169E0,-6.709425023E0,-6.466098406E0,1.178911806E1
6.546455458E0,-6.647845071E0,-6.284832382E0,-5.870536687E0,1.086996611E1
6.556506458E0,-6.992951247E0,-5.386709998E0,-5.016030439E0,1.015276185E1
6.566556458E0,-6.081242858E0,-4.686617020E0,-3.554875567E0,8.460675746E0
6.576607458E0,-4.863042719E0,-3.904160748E0,-3.030615381E0,6.933706457E0
6.586658458E0,-3.979563518E0,-2.884187652E0,-1.925860582E0,5.278674378E0
6.596708458E0,-3.338114020E0,-1.637696346E0,-5.910289568E-1,3.764886421E0
6.606759458E0,-2.859719979E0,-8.080349171E-1,1.029203510E-1,2.973467905E0
6.616810458E0,-2.458971698E0,-3.912945020E-1,1.313602724E0,2.815174118E0
6.626861458E0,-1.984034531E0,4.948457676E-1,2.529500813E0,3.252635811E0
6.636911458E0,-1.560425391E0,1.545400093E0,3.589461848E0,4.208019155E0
6.646962458E0,-2.023628659E0,2.667743610E0,5.570668080E0,6.499559352E0
6.657013458E0,-2.664983139E0,4.383813988E0,8.917421361E0,1.028787461E1
6.667063458E0,-2.107395578E0,6.415760896E0,1.283728013E1,1.450513237E1
6.677114458E0,4.378786844E-1,8.198565254E0,1.617935213E1,1.814330855E1
6.687165458E0,4.273954746E0,9.044335177E0,1.885406387E1,2.134343956E1
6.697215458E0,7.642231336E0,8.530878307E0,2.161180256E1,2.445914132E1
6.707266458E0,1.062467385E1,7.577146563E0,2.338186466E1,2.677701327E1
6.717317458E0,1.318955265E1,6.665777312E0,2.290250057E1,2.725658487E1
6.727367458E0,1.419423294E1,5.241211392E0,2.119511360E1,2.604187754E1
6.737418458E0,1.331549934E1,3.441340473E0,1.861220198E1,2.314215654E1
6.747469458E0,1.104109383E1,2.174338011E0,1.580371413E1,1.940079584E1
6.757519458E0,8.394731153E0,1.686341380E0,1.320555648E1,1.573855077E1
6.767570458E0,5.984176154E0,1.352901568E0,1.090068347E1,1.250862131E1
6.777621458E0,3.979065920E0,9.560317460E-1,8.950138872E0,9.841338736E0
6.787672458E0,3.039221898E0,4.535588703E-1,7.072281007E0,7.711014462E0
6.797722458E0,2.961593093E0,-1.592085725E-1,5.409888361E0,6.169543994E0
6.807773458E0,2.902826822E0,-6.175987047E-1,4.161325970E0,5.111209793E0
6.817824458E0,2.573921526E0,-6.984715444E-1,3.070431411E0,4.066999333E0
6.827874458E0,2.013336098E0,-6.424482018E-1,2.090079049E0,2.972321040E0
6.837925458E0,1.823154531E0,-8.698499268E-1,1.052678327E0,2.277863692E0
6.847976458E0,1.817560793E0,-1.556019514E0,-3.087955517E-1,2.412483918E0
6.858026458E0,8.160792241E-1,-2.305826104E0,-1.468305432E0,2.852847729E0
6.868077458E0,1.755041778E-2,-3.243938765E0,-2.131317707E0,3.881489649E0
6.878128458E0,-1.944462329E-2,-4.262982153E0,-3.136170487E0,5.292349219E0
6.888178458E0,-5.266908735E-2,-4.606510751E0,-4.038929129E0,6.126635605E0
6.898229458E0,-3.748562247E-2,-5.007996950E0,-4.806721169E0,6.941614150E0
6.908280458E0,-3.509776577E-1,-5.981679393E0,-5.638632022E0,8.227870001E0
6.918331458E0,-1.018499013E0,-6.909874007E0,-6.435634997E0,9.497425801E0
6.928381458E0,-1.629128129E0,-7.492212832E0,-7.156542308E0,1.048825102E1
6.938432458E0,-2.230792001E0,-7.767881568E0,-7.856438819E0,1.127120437E1
6.948483458E0,-2.860709912E0,-7.768904246E0,-8.635721222E0,1.196307717E1
6.958533458E0,-3.551837354E0,-7.567381713E0,-9.141736926E0,1.238758122E1
6.968584458E0,-4.266296940E0,-7.326135535E0,-9.332342708E0,1.260817877E1
6.978635458E0,-4.551833437E0,-7.054312513E0,-9.290874254E0,1.252209476E1
6.988685458E0,-4.555935844E0,-6.859640577E0,-9.034948057E0,1.222462706E1
6.998736458E0,-4.609305427E0,-7.016406183E0,-8.784120047E0,1.215057271E1
7.008787458E0,-4.434658451E0,-7.251574765E0,-8.472029005E0,1.200111693E1
7.018837458E0,-4.027242883E0,-7.106027042E0,-8.183857752E0,1.156243198E1
7.028888458E0,-3.870963766E0,-6.573205948E0,-7.697004544E0,1.083675578E1
7.038939458E0,-3.597552640E0,-6.055197020E0,-6.786527578E0,9.780835982E0
7.048990458E0,-3.362268868E0,-5.920929746E0,-6.395067599E0,9.341260654E0
7.059040458E0,-3.358049225E0,-5.355480019E0,-5.794853836E0,8.575429541E0
7.069091458E0,-3.355721156E0,-3.973964224E0,-4.614433143E0,6.953146724E0
7.079142458E0,-3.065614767E0,-1.997826358E0,-3.198346855E0,4.859910150E0
7.089192458E0,-2.138494287E0,1.223594195E-1,-1.386321037E0,2.551473233E0
7.099243458E0,-1.384028344E0,2.910808271E0,-6.689933914E-1,3.291791519E0
7.109294458E0,-1.062451656E0,5.397129151E0,7.863499331E-1,5.556631427E0
7.119344458E0,-1.483429840E0,8.358334574E0,2.392702864E0,8.819713597E0
7.129395458E0,-1.024687998E0,1.215805937E1,4.283310291E0,1.293116933E1
7.139446458E0,1.385893605E0,1.473246212E1,6.765745404E0,1.627087743E1
7.149496458E0,3.959007631E0,1.494980664E1,7.985238946E0,1.740501367E1
7.159547458E0,5.186379712E0,1.431992235E1,7.832579255E0,1.712623743E1
7.169598458E0,5.850462027E0,1.362617594E1,8.202254847E0,1.694631409E1
7.179649458E0,5.537731884E0,1.324919074E1,8.544565469E0,1.670979141E1
7.189699458E0,5.336846697E0,1.254672614E1,7.869006239E0,1.574241178E1
7.199750458E0,5.456422842E0,1.062240162E1,6.896260520E0,1.379008251E1
7.209801458E0,4.397145932E0,1.017306648E1,6.489867922E0,1.284307439E1
7.219851458E0,3.633279420E0,9.449926121E0,4.559496213E0,1.110364034E1
7.229902458E0,2.537933960E0,6.536336914E0,3.879959707E0,8.013669345E0
7.239953458E0,1.759897014E0,3.795697821E0,2.089966782E0,4.676806667E0
7.250003458E0,1.473822573E0,1.174166511E0,5.137366596E-1,1.953137304E0
7.260054458E0,1.258082242E0,-1.435479748E0,-4.858743846E-1,1.969631172E0
7.270105458E0,1.299793940E0,-4.044129058E0,-9.810306394E-1,4.359686369E0
7.280155458E0,2.062954108E0,-6.101161982E0,-1.485712008E0,6.609636704E0
7.290206458E0,3.309406238E0,-6.990118856E0,-1.874129680E0,7.957781935E0
7.300257458E0,3.855507236E0,-7.770373651E0,-1.375183260E0,8.782640362E0
7.310308458E0,3.862993426E0,-8.199023091E0,-4.203107250E-1,9.073222082E0
7.320358458E0,4.027702767E0,-8.031993282E0,-4.127534911E-1,8.994757980E0
7.330409458E0,3.294012566E0,-7.432129183E0,-8.742239365E-1,8.176266291E0
7.340460458E0,2.569428526E0,-6.548472226E0,-4.308877534E-1,7.047702866E0
7.350510458E0,2.787642521E0,-6.031264951E0,-3.319861937E-1,6.652617723E0
7.360561625E0,2.281207133E0,-5.842218622E0,5.854103673E-1,6.299057843E0
7.370612625E0,2.077127612E0,-5.763827341E0,8.496969134E-1,6.185317257E0
7.380662625E0,1.876463743E0,-5.547496149E0,8.261004746E-1,5.914243121E0
7.390713625E0,9.277733953E-1,-5.502291325E0,1.097223585E0,5.686815708E0
7.400764625E0,7.381086498E-3,-5.714403750E0,8.434339607E-1,5.776317646E0
7.410814625E0,-7.082071584E-1,-5.936039536E0,4.596227252E-1,5.995779833E0
7.420865625E0,-1.346953196E0,-5.683906428E0,4.020984024E-1,5.855148018E0
7.430916625E0,-1.639770646E0,-5.853466326E0,5.560082281E-1,6.104183889E0
7.440967625E0,-1.252986978E0,-6.461228260E0,6.875600553E-1,6.617415343E0
7.451017625E0,-5.856770734E-1,-6.601207094E0,8.364409831E-1,6.679714534E0
7.461068625E0,1.099388005E0,-7.253026044E0,1.997369398E0,7.602928731E0
7.471119625E0,1.558532209E-1,-6.685687081E0,1.987832589E0,6.976688353E0
7.481169625E0,3.989015834E-1,-5.661961827E0,1.171019540E0,5.795534572E0
7.491220625E0,-3.068399504E-1,-5.610826757E0,1.354239119E0,5.780094397E0
7.501271625E0,-6.283224982E-1,-5.231942385E0,1.231506939E0,5.411526552E0
7.511321625E0,-1.300333491E0,-4.289206915E0,1.419620053E0,4.701434276E0
7.521372625E0,9.535792775E-1,-1.700161566E0,2.275928413E0,2.996616914E0
7.531423625E0,9.051957607E-1,1.560069296E0,3.864531536E0,4.264715649E0
7.541474625E0,-6.614487875E0,-1.354521539E0,6.602542598E0,9.443502910E0
7.551524625E0,-4.052825329E0,-1.215001127E0,2.292829205E0,4.812347312E0
7.561575625E0,-3.509366103E0,1.265329866E0,1.515460303E0,4.026577957E0
7.571626625E0,-2.621558792E0,4.270332103E0,1.843166627E0,5.339060778E0
7.581676625E0,-1.510308321E0,5.802058191E0,1.295647094E0,6.133808920E0
7.591727625E0,1.285342254E0,7.821419259E0,1.419852480E0,8.052495576E0
7.601778625E0,4.904182559E-1,7.220207376E0,1.507903361E0,7.392271449E0
7.611828625E0,3.730549606E0,8.333373395E0,1.331394340E0,9.226847966E0
7.621879625E0,3.162671238E0,9.161419823E0,8.782476979E-1,9.731671057E0
7.631930625E0,3.338908072E0,9.296334969E0,-9.849219614E-1,9.926742781E0
7.641981625E0,2.098686735E0,8.368720399E0,-3.175577213E0,9.193707509E0
7.652031625E0,2.036929028E0,9.455573362E0,-6.119351501E0,1.144567212E1
7.662082625E0,4.719127247E0,1.511245162E1,-1.046393740E1,1.897762740E1
7.672133625E0,4.317571466E0,1.461950795E1,-1.152970121E1,1.911296539E1
7.682183625E0,6.285324132E0,1.109709963E1,-8.978258716E0,1.559679612E1
7.692234625E0,3.840850313E0,1.093760046E1,-7.825012958E0,1.398620973E1
7.702285625E0,1.586391706E0,9.634974709E0,-5.884812080E0,1.140089424E1
7.712335625E0,9.746311542E-1,7.283067284E0,-5.875164759E0,9.408003820E0
7.722386625E0,3.407172561E-3,5.306198516E0,-5.156089965E0,7.398717323E0
7.732437625E0,-1.681871183E0,3.383345157E0,-3.760782927E0,5.330966456E0
7.742487625E0,-3.569660836E0,1.666445351E0,-2.047750762E0,4.439910110E0
7.752538625E0,-4.384547521E0,1.336106318E-1,2.582039800E-1,4.394175470E0
7.762589625E0,-4.711339633E0,-2.316653978E0,5.423222351E-1,5.278041322E0
7.772640625E0,-5.274337038E0,-5.089802420E0,7.521657948E-1,7.368206922E0
7.782690625E0,-6.914619607E0,-6.839625558E0,6.140804350E-1,9.745231494E0
7.792741625E0,-7.007795573E0,-8.099588265E0,-1.296588496E0,1.078858983E1
7.802792625E0,-3.756986330E0,-9.570848295E0,-1.518932379E0,1.039342287E1
7.812842625E0,-4.273751263E0,-8.267072402E0,-8.540677071E-1,9.345526609E0
7.822893625E0,-3.445441418E0,-7.230518941E0,-1.535204011E-1,8.010932482E0
7.832944625E0,-1.929584381E0,-6.876820282E0,4.036449909E-1,7.153801951E0
7.842995625E0,-1.116446891E-1,-5.781418104E0,5.876714855E-1,5.812281618E0
7.853045625E0,-5.335183749E-1,-4.203481472E0,8.941024232E-1,4.330510072E0
7.863096625E0,-1.791127285E0,-4.570607677E0,1.516511632E0,5.137937234E0
7.873147625E0,-2.443635329E0,-5.770839322E0,1.424089372E0,6.426660924E0
7.883197625E0,-3.266871837E0,-6.470522409E0,5.986239052E-1,7.273132917E0
7.893248625E0,-3.328221701E0,-6.945685279E0,5.470057818E-1,7.721322362E0
7.903299625E0,-3.510606882E0,-7.214605744E0,4.877466631E-1,8.038208353E0
7.913349625E0,-3.381659697E0,-7.321440806E0,8.406320480E-1,8.108377151E0
7.923400625E0,-2.919534656E0,-7.023525753E0,1.453012186E0,7.743696858E0
7.933451625E0,-2.845510660E0,-6.487467640E0,1.932954132E0,7.343056514E0
7.943501625E0,-2.703742285E0,-6.045630391E0,2.695182838E0,7.150096482E0
7.953552625E0,-1.942437731E0,-5.778974553E0,3.016244094E0,6.802009972E0
7.963603625E0,-1.137159776E0,-5.422349362E0,2.277084846E0,5.990001699E0
7.973654625E0,-1.706209926E0,-5.468462843E0,1.485956422E0,5.918049059E0
7.983704625E0,-2.032536015E0,-5.674876572E0,7.628606446E-1,6.075967670E0
7.993755625E0,-1.559221449E0,-5.660414654E0,4.707724884E-2,5.871429285E0
8.003806625E0,-1.436025293E0,-5.419698819E0,6.278377640E-1,5.641762507E0
8.013856625E0,-3.922113454E0,-3.859072284E0,9.808097608E-1,5.589042908E0
8.023907625E0,-3.449264035E0,-3.125008737E0,-4.846241038E-1,4.679525886E0
8.033958625E0,-4.277102594E0,-2.238452731E0,-2.027665577E0,5.236000852E0
8.044009625E0,-4.108213956E0,3.546885931E-1,-2.473680954E0,4.808567705E0
8.054059625E0,-2.329794718E0,3.097714520E0,-1.980005214E0,4.352493460E0
8.064110625E0,-1.474428344E0,3.698487861E0,-1.490955791E0,4.251552725E0
8.074161625E0,5.084238794E-1,3.597006510E0,-3.176163104E0,4.825449485E0
8.084211625E0,2.886630034E0,5.629561236E0,-5.147951810E0,8.156347253E0
8.094262625E0,5.405374310E0,8.434060110E0,-6.025682030E0,1.169017901E1
8.104313625E0,7.081914294E0,1.082945269E1,-6.435613947E0,1.445156333E1
8.114363625E0,9.684492440E0,1.323398448E1,-5.369808036E0,1.725579837E1
8.124414625E0,1.117558915E1,1.531977284E1,-3.343304594E0,1.925530883E1
8.134465625E0,1.295722406E1,1.687265649E1,-1.906175931E0,2.135906597E1
8.144516625E0,1.346848823E1,1.736115510E1,-1.581176136E0,2.202975260E1
8.154566625E0,1.414619222E1,1.618761191E1,-1.375459249E0,2.154171353E1
8.164617625E0,1.406076907E1,1.228328919E1,-1.712534859E0,1.874879185E1
8.174668625E0,1.136116223E1,7.063994917E0,-1.198199737E0,1.343174278E1
8.184718625E0,8.692107092E0,4.840360200E0,-1.184145296E0,1.001918223E1
8.194769625E0,6.740777793E0,4.581340241E0,-2.795045096E0,8.616208026E0
8.204820625E0,3.879538708E0,3.648762555E0,-3.997348409E0,6.659060224E0
8.214870625E0,7.684261706E-1,1.748261932E0,-3.604085734E0,4.078766056E0
8.224921625E0,-1.628524111E0,-1.266106961E0,-3.306216874E0,3.896945937E0
8.234972625E0,-2.529097940E0,-4.002306263E0,-1.310452244E0,4.912441033E0
8.245023625E0,-2.969322235E0,-5.171325470E0,-1.280470792E-1,5.964551761E0
8.255073625E0,-3.593231547E0,-6.910211976E0,-1.423878872E-1,7.789904802E0
8.265124625E0,-4.353921267E0,-9.014019118E0,-4.434679648E-1,1.002027120E1
8.275175625E0,-4.618976430E0,-1.056931592E1,-8.615183023E-1,1.156665881E1
8.285225625E0,-4.710485939E0,-1.152348211E1,-1.312515142E0,1.251806749E1
8.295276625E0,-4.868764805E0,-1.138597782E1,-1.440816210E0,1.246680845E1
8.305327625E0,-4.963469818E0,-1.145854761E1,-2.290949325E-1,1.248946878E1
8.315378625E0,-4.598269685E0,-1.140652610E1,1.109253062E0,1.234841545E1
8.325428625E0,-5.421048941E0,-1.063196182E1,2.683639265E0,1.223226485E1
8.335479625E0,-5.028901330E0,-9.522505270E0,3.329672395E0,1.127185315E1
8.345530625E0,-5.805109853E0,-8.834280971E0,3.321379874E0,1.108040545E1
8.355580500E0,-5.806064703E0,-8.516008837E0,1.543530300E0,1.042186546E1
8.365631500E0,-5.862662827E0,-8.569167044E0,1.666492860E0,1.051563777E1
8.375682500E0,-5.058599339E0,-8.223521755E0,2.161825701E0,9.893898508E0
8.385732500E0,-4.677392453E0,-6.650692080E0,2.806290461E0,8.601451706E0
8.395783500E0,-3.849211539E0,-5.902148489E0,3.268744116E0,7.767655654E0
8.405834500E0,-4.041348706E0,-6.093491020E0,4.103393512E0,8.384567400E0
8.415885500E0,-4.667375588E0,-5.759140213E0,4.026295635E0,8.435825235E0
8.425935500E0,-4.812994062E0,-5.324715478E0,3.361243851E0,7.925620921E0
8.435986500E0,-4.671599616E0,-4.855255398E0,2.624079527E0,7.230708217E0
8.446037500E0,-4.414306925E0,-3.759150385E0,1.809624513E0,6.073883282E0
8.456087500E0,-4.029591125E0,-2.191026549E0,7.179550517E-1,4.642592103E0
8.466138500E0,-3.990179722E0,-4.533767295E-1,-1.281127288E0,4.215254655E0
8.476189500E0,-4.355926570E0,1.678484184E0,-2.763036268E0,5.424552963E0
8.486239500E0,-4.822406909E0,3.898566132E0,-3.356538012E0,7.051295889E0
8.496290500E0,-4.403067407E0,6.174609443E0,-3.029544171E0,8.166452244E0
8.506341500E0,-2.716946760E0,7.837877417E0,-1.001825677E0,8.355703249E0
8.516392500E0,4.811498344E-2,7.503217877E0,6.824544127E-1,7.534343872E0
8.526442500E0,2.740354334E0,5.902273035E0,-1.007791007E-1,6.508189094E0
8.536493500E0,3.423810813E0,6.590182169E0,-2.370696284E0,7.795715642E0
8.546544500E0,3.135415612E0,9.153323768E0,-3.686972355E0,1.035412634E1
8.556594500E0,2.589390920E0,1.040822396E1,-3.639551436E0,1.132618232E1
8.566645500E0,3.446503857E0,1.067963066E1,-3.454158447E0,1.174155485E1
8.576696500E0,5.917936556E0,1.117443959E1,-2.305161568E0,1.285316471E1
8.586747500E0,6.319836738E0,1.145769158E1,-9.846173215E-1,1.312206173E1
8.596797500E0,6.781694854E0,1.182584397E1,-1.645217181E0,1.373130403E1
8.606848500E0,6.844999734E0,1.175216320E1,-1.552548022E0,1.368859988E1
8.616899500E0,7.087369162E0,1.219269828E1,5.659484947E-1,1.411428321E1
8.626949500E0,7.350963398E0,1.346583008E1,3.292507492E0,1.569094797E1
8.637000500E0,7.999718991E0,1.438432241E1,4.901188785E0,1.717340638E1
8.647051500E0,8.459569173E0,1.386672571E1,5.216731439E0,1.706061779E1
8.657102500E0,8.300652961E0,1.227637193E1,4.625473856E0,1.552434075E1
8.667152500E0,7.535430188E0,1.041003776E1,3.813614860E0,1.340504579E1
8.677203500E0,6.890988670E0,8.846837282E0,2.958548448E0,1.159764044E1
8.687254500E0,5.914962078E0,7.327756383E0,2.212396953E0,9.673545900E0
8.697304500E0,4.183302730E0,5.306055844E0,1.048597482E0,6.837675558E0
8.707355500E0,2.298369150E0,2.955640628E0,1.233811473E0,3.942157153E0
8.717406500E0,1.239499206E0,1.357840419E-2,8.779535099E-1,1.518994740E0
8.727457500E0,7.388483226E-2,-2.567075021E0,7.506173059E-2,2.569234788E0
8.737507500E0,-1.310409560E0,-4.737658535E0,-1.338646933E-2,4.915563122E0
8.747558500E0,-3.065611551E0,-6.387573808E0,-1.231876776E-2,7.085141148E0
8.757609500E0,-4.271961722E0,-7.634387881E0,2.219836950E-1,8.751160610E0
8.767659500E0,-5.356436039E0,-7.867404102E0,9.761388588E-1,9.567669592E0
8.777710500E0,-6.452670860E0,-7.976159974E0,1.171053308E0,1.032605709E1
8.787761500E0,-7.187147219E0,-8.292266884E0,1.114399781E0,1.102989855E1
8.797812500E0,-7.556899994E0,-8.723021321E0,1.513422110E0,1.163994351E1
8.807862500E0,-7.998223858E0,-8.646949046E0,2.104623559E0,1.196539815E1
8.817913500E0,-8.086572363E0,-8.316802971E0,2.547884459E0,1.187659797E1
8.827964500E0,-7.929209756E0,-8.331019891E0,2.514981300E0,1.177299413E1
8.838014500E0,-7.791335335E0,-8.542980874E0,2.316573432E0,1.179211351E1
8.848065500E0,-7.787191413E0,-8.731495691E0,1.506513040E0,1.179614126E1
8.858116500E0,-7.699852722E0,-8.864198250E0,7.803786103E-1,1.176735881E1
8.868166500E0,-7.600766391E0,-9.138675324E0,3.675618231E-1,1.189210402E1
8.878217500E0,-7.720063623E0,-9.269443624E0,-2.525997162E-3,1.206324889E1
8.888268500E0,-7.888727728E0,-8.975152091E0,-3.352549334E-1,1.195398578E1
8.898319500E0,-7.514142230E0,-8.496596081E0,-4.497957484E-1,1.135151068E1
8.908369500E0,-7.011372900E0,-8.247229291E0,-1.677332282E-1,1.082609234E1
8.918420500E0,-6.498611264E0,-8.208446463E0,3.211665058E-1,1.047443028E1
8.928471500E0,-5.883780631E0,-7.474221534E0,8.625226347E-1,9.551272551E0
8.938521500E0,-4.980093452E0,-6.328961318E0,1.066651418E0,8.123720047E0
8.948572500E0,-4.355161754E0,-5.337499831E0,1.538949738E0,7.058661675E0
8.958623500E0,-3.598742548E0,-5.001554487E0,1.890131171E0,6.445082704E0
8.968674500E0,-2.290493535E0,-3.945697614E0,1.778073961E0,4.896574037E0
8.978724500E0,-1.267702666E0,-2.028649371E0,9.145992529E-1,2.561050588E0
8.988775500E0,8.058106363E-2,3.581010282E-2,4.449916761E-1,4.536444236E-1
8.998826500E0,1.644344630E0,1.843527693E0,7.924858551E-1,2.594320228E0
9.008876500E0,2.858528901E0,3.794554106E0,1.303330189E0,4.926306722E0
9.018927500E0,4.055701282E0,5.350891709E0,1.054503243E0,6.796523527E0
9.028978500E0,5.081926805E0,6.195198659E0,7.155028756E-1,8.044775375E0
9.039029500E0,5.971984710E0,6.740601792E0,1.456753381E-1,9.006749424E0
9.049079500E0,6.775677484E0,7.267775645E0,-9.190793896E-1,9.978731138E0
9.059130500E0,7.251571257E0,7.766923209E0,-1.717960052E0,1.076391047E1
9.069181500E0,7.560653322E0,8.367459739E0,-1.770356659E0,1.141542920E1
9.079231500E0,7.739057719E0,8.709323049E0,-1.431915286E0,1.173864148E1
9.089282500E0,7.843945658E0,8.950513093E0,-8.491945644E-1,1.193148354E1
9.099333500E0,7.946789410E0,8.959116687E0,-2.124293447E-1,1.197757738E1
9.109384500E0,8.126298346E0,8.612800137E0,3.603123721E-1,1.184680868E1
9.119434500E0,8.186039933E0,8.238302931E0,7.658156812E-1,1.163904458E1
9.129485500E0,7.825730411E0,7.935097318E0,1.248014506E0,1.121451587E1
9.139536500E0,7.220658782E0,7.565973703E0,1.290785719E0,1.053793144E1
9.149586500E0,6.465804291E0,6.731284254E0,1.239365305E0,9.415563668E0
9.159637500E0,5.392231523E0,5.565407340E0,1.142216156E0,7.832916277E0
9.169688500E0,3.872504507E0,4.585624496E0,1.276180544E0,6.136194257E0
9.179739500E0,2.442242230E0,3.415559222E0,1.351280428E0,4.410958025E0
9.189789500E0,1.288364972E0,1.851056567E0,1.541254125E0,2.731622045E0
9.199840500E0,1.064567471E-1,8.277903199E-3,2.097358248E0,2.100074566E0
9.209891500E0,-1.011583511E0,-1.621073297E0,2.505772812E0,3.151202504E0
9.219941500E0,-1.569729481E0,-2.901483716E0,2.560508013E0,4.175986073E0
9.229992500E0,-2.037582162E0,-4.125771391E0,2.412847692E0,5.195725611E0
9.240043500E0,-2.494683568E0,-5.248226296E0,2.277984440E0,6.241517321E0
9.250094500E0,-3.068307118E0,-5.801045453E0,1.439638434E0,6.718570959E0
9.260144500E0,-3.342608775E0,-6.089225476E0,3.097373919E-1,6.953246549E0
9.270195500E0,-3.725855754E0,-6.458119295E0,-5.226557100E-1,7.474120344E0
9.280246500E0,-4.128692660E0,-6.628620595E0,-1.208190874E0,7.902179400E0
9.290296500E0,-4.384069219E0,-6.658102841E0,-2.105405917E0,8.245188320E0
9.300347500E0,-4.492190083E0,-6.843296440E0,-2.579600927E0,8.582821148E0
9.310398500E0,-4.872386570E0,-6.919647043E0,-2.579567013E0,8.847363001E0
9.320449500E0,-5.097433037E0,-6.869509508E0,-2.311267523E0,8.860922187E0
9.330499500E0,-5.377631611E0,-6.746682896E0,-1.958958746E0,8.847269138E0
9.340550500E0,-5.633439694E0,-6.530479758E0,-1.627928572E0,8.776842262E0
9.350601500E0,-5.789632857E0,-6.764857212E0,-1.331379575E0,9.003094651E0
9.360651458E0,-6.261646417E0,-6.864369805E0,-1.130953833E0,9.359852844E0
9.370702458E0,-6.603951192E0,-6.420304767E0,-1.100530113E0,9.275971711E0
9.380753458E0,-6.867227340E0,-5.981582914E0,-1.176709977E0,9.182744245E0
9.390804458E0,-6.824759012E0,-5.422842867E0,-1.311017670E0,8.814949102E0
9.400854458E0,-6.416110559E0,-4.597605441E0,-1.044910301E0,7.962178599E0
9.410905458E0,-6.048283857E0,-3.651103195E0,-6.473358162E-1,7.094458106E0
9.420956458E0,-5.583354199E0,-2.291153685E0,-3.986842132E-1,6.048320298E0
9.431006458E0,-4.855319717E0,-6.871536738E-1,-2.323356056E-1,4.909204575E0
9.441057458E0,-3.842086707E0,8.720788854E-1,2.584007023E-1,3.948280989E0
9.451108458E0,-2.551277014E0,2.437674385E0,5.809114830E-1,3.576133241E0
9.461159458E0,-1.032970871E0,4.149886478E0,4.418536216E-1,4.299281477E0
9.471209458E0,5.834597361E-1,5.660672516E0,2.872783828E-1,5.697909044E0
9.481260458E0,2.079179839E0,6.408557711E0,2.242418897E-1,6.741133818E0
9.491311458E0,3.416277845E0,6.664760481E0,-1.511294746E-1,7.490849531E0
9.501361458E0,4.976382809E0,6.823821119E0,-1.004741099E0,8.505199892E0
9.511412458E0,6.700837217E0,6.576679779E0,-1.845217538E0,9.568634390E0
9.521463458E0,8.711989380E0,7.408133964E0,-8.361611938E-1,1.146640193E1
9.531514458E0,7.265270113E0,9.657736166E0,-2.072448524E0,1.226177232E1
9.541564458E0,7.613845443E0,8.733032339E0,-1.984825659E0,1.175483004E1
9.551615458E0,8.972602120E0,9.457301214E0,-6.400358599E-2,1.303657284E1
9.561666458E0,9.878707123E0,1.036779865E1,4.072445734E-1,1.432640748E1
9.571717458E0,9.813323557E0,1.002764506E1,6.107206249E-1,1.404378739E1
9.581767458E0,9.065687454E0,9.401029950E0,4.210989296E-1,1.306688094E1
9.591818458E0,7.997412849E0,8.806414311E0,-3.501195788E-2,1.189591405E1
9.601869458E0,7.020087590E0,8.084600682E0,5.439080000E-2,1.070725718E1
9.611919458E0,6.545322915E0,7.190963112E0,7.699403071E-1,9.754179136E0
9.621970458E0,6.123901804E0,5.673605973E0,1.084262062E0,8.418289747E0
9.632021458E0,5.402008653E0,4.674130876E0,9.947248185E-1,7.212397271E0
9.642071458E0,3.482547848E0,4.051255644E0,8.080431032E-1,5.403123677E0
9.652122458E0,2.048439272E0,2.900992550E0,1.211188742E0,3.752177954E0
9.662173458E0,1.185676755E0,1.786578151E0,1.302390103E0,2.508766796E0
9.672224458E0,6.734010226E-1,5.557287312E-1,8.463458741E-1,1.215978905E0
9.682274458E0,7.295383859E-1,-1.400157888E0,8.877137554E-1,1.811271399E0
9.692325458E0,6.745271963E-1,-3.022920445E0,1.749987445E0,3.557455694E0
9.702376458E0,9.230098879E-1,-4.412858570E0,2.566850488E0,5.187869451E0
9.712427458E0,3.447296154E-1,-5.528717816E0,2.964578097E0,6.282856236E0
9.722477458E0,-6.631105077E-1,-6.444050310E0,3.346707673E0,7.291498624E0
9.732528458E0,-9.784385687E-1,-7.487137449E0,2.886204357E0,8.083609639E0
9.742579458E0,-2.165073683E0,-8.180563431E0,1.715484779E0,8.634352907E0
9.752629458E0,-4.407831718E0,-8.093986632E0,7.731000694E-1,9.248744984E0
9.762680458E0,-6.686209238E0,-8.291544753E0,-8.123536706E-3,1.065153390E1
9.772731458E0,-8.413593101E0,-8.538235273E0,-8.678490096E-1,1.201845133E1
9.782782458E0,-9.611055504E0,-8.551115520E0,-1.968026316E0,1.301411127E1
9.792832458E0,-9.943786633E0,-8.576283690E0,-2.719481235E0,1.340996319E1
9.802883458E0,-9.919291477E0,-9.122228860E0,-3.310052940E0,1.387673785E1
9.812934458E0,-9.634440274E0,-8.397033786E0,-4.772893272E0,1.364232847E1
9.822984458E0,-8.763118018E0,-7.482086624E0,-5.675061929E0,1.284446128E1
9.833035458E0,-7.756580070E0,-7.111183702E0,-5.795766002E0,1.201350788E1
9.843086458E0,-7.496913993E0,-6.905063503E0,-5.779750478E0,1.171704472E1
9.853137458E0,-6.977816899E0,-6.750520424E0,-5.342834830E0,1.108175702E1
9.863187458E0,-6.391566287E0,-6.368931715E0,-4.876956754E0,1.025671087E1
9.873238458E0,-5.973699113E0,-5.444000432E0,-4.838313675E0,9.419739965E0
9.883289458E0,-5.283441153E0,-4.515099474E0,-5.032352357E0,8.580527019E0
9.893339458E0,-4.032170040E0,-3.633590784E0,-5.107853944E0,7.453291161E0
9.903390458E0,-2.703438815E0,-2.428272647E0,-5.065564542E0,6.234182673E0
9.913441458E0,-2.008286442E0,-1.131548495E0,-4.723629895E0,5.256072281E0
9.923492458E0,-1.022923893E0,2.601221591E-1,-3.427172377E0,3.586021100E0
9.933542458E0,-2.228274482E-1,1.504421344E0,-1.887960684E0,2.424320771E0
9.943593458E0,-9.503695947E-1,2.129773457E0,-6.566177595E-1,2.422866944E0
9.953644458E0,-1.528147591E0,3.074147902E0,-7.060162067E-2,3.433745036E0
9.963695458E0,-4.689747620E-1,4.538122886E0,3.141545248E-1,4.573094108E0
9.973745458E0,1.174508281E0,6.943993680E0,1.233555804E0,7.149837610E0
9.983796458E0,2.397337368E0,9.594179855E0,2.357654069E0,1.016631921E1
9.993847458E0,2.595681354E0,1.023690989E1,3.164592633E0,1.102481439E1
1.000389746E1,2.435313864E0,9.365125122E0,3.792782984E0,1.039334041E1
1.001394846E1,2.023264085E0,9.152324479E0,4.555222483E0,1.042154944E1
1.002399946E1,2.550580903E0,9.269331357E0,4.932870169E0,1.080551595E1
1.003405046E1,4.148653007E0,9.067916413E0,4.645024021E0,1.100066716E1
1.004410046E1,5.295316848E0,9.517487774E0,3.994123085E0,1.160068848E1
1.005415146E1,5.711380155E0,1.073460384E1,3.150083937E0,1.256083642E1
1.006420246E1,5.815096897E0,1.159210854E1,2.115186993E0,1.314025678E1
1.007425246E1,5.701770256E0,1.158951355E1,1.323780388E0,1.298381311E1
1.008430346E1,5.235217411E0,1.002453434E1,1.270391800E0,1.138036403E1
1.009435446E1,4.419865288E0,8.286262963E0,9.623113632E-1,9.440519383E0
1.010440546E1,3.733972274E0,7.705236838E0,2.775792042E-2,8.562359148E0
1.011445546E1,3.322452838E0,7.308779830E0,-5.171136824E-1,8.045145245E0
1.012450646E1,3.061893892E0,6.259177723E0,-7.741409469E-1,7.010834057E0
1.013455746E1,2.815496610E0,5.240748292E0,-9.700378740E-1,6.027722397E0
1.014460746E1,2.403178736E0,4.033884736E0,-8.217209101E-1,4.766835360E0
1.015465846E1,1.777072625E0,2.332877077E0,-2.786560786E-1,2.945836347E0
1.016470946E1,9.151306187E-1,8.309823149E-1,-5.303890547E-2,1.237258575E0
1.017476046E1,3.410822685E-1,-3.391338301E-1,5.245304187E-2,4.838390127E-1
1.018481046E1,3.091332284E-1,-1.406014459E0,-3.158566493E-1,1.473840370E0
1.019486146E1,-1.792727083E-2,-2.687987255E0,-9.610629827E-1,2.854687185E0
1.020491246E1,-7.111079621E-1,-3.918212192E0,-1.461720298E0,4.242014562E0
1.021496246E1,-1.068217010E0,-4.926902500E0,-1.328389748E0,5.213451367E0
1.022501346E1,-1.336274718E0,-5.572638592E0,-1.116479636E0,5.838360881E0
1.023506446E1,-1.648208470E0,-6.115115778E0,-1.280588760E0,6.461512184E0
1.024511546E1,-1.751609462E0,-6.698035816E0,-1.172592441E0,7.021879558E0
1.025516546E1,-1.944210022E0,-6.988750607E0,-1.612504568E-1,7.255934769E0
1.026521646E1,-2.430787242E0,-7.445306468E0,7.643848675E-1,7.869282003E0
1.027526746E1,-2.747977056E0,-8.172680799E0,1.079543871E0,8.689620493E0
1.028531746E1,-2.743272094E0,-8.784335809E0,8.636401107E-1,9.243158099E0
1.029536846E1,-2.874100328E0,-9.024790274E0,3.716022491E-2,9.471466258E0
1.030541946E1,-3.227867108E0,-8.839423597E0,-4.040637247E-1,9.419012851E0
1.031547046E1,-2.911767799E0,-8.739722139E0,-6.587444649E-1,9.235533501E0
1.032552046E1,-2.910117423E0,-9.332616942E0,-1.943556742E0,9.967142780E0
1.033557146E1,-3.036619302E0,-9.533489850E0,-1.934489318E0,1.019071805E1
1.034562246E1,-2.788653504E0,-9.201337010E0,-1.155017026E0,9.683762465E0
1.035567346E1,-2.852951534E0,-9.254855406E0,-1.309088674E0,9.772686130E0
1.036572712E1,-2.563353853E0,-8.895218899E0,-1.886940784E0,9.447552474E0
1.037577813E1,-1.996831454E0,-6.970079863E0,-2.191652201E0,7.574476122E0
1.038582913E1,-4.119633861E-1,-5.297952188E0,-2.274489267E0,5.780251953E0
1.039587912E1,9.930238634E-1,-4.569551085E0,-2.259331384E0,5.193406571E0
1.040593012E1,1.006041373E0,-3.441731359E0,-1.595596540E0,3.924737228E0
1.041598112E1,8.499658853E-2,-6.093938917E-1,-1.321471322E0,1.457693998E0
1.042603213E1,-8.896176088E-1,2.649349439E0,-1.342764543E0,3.100562619E0
1.043608213E1,-1.708462858E0,4.980780500E0,-4.583152878E-1,5.285553200E0
1.044613312E1,-2.441684844E0,6.152208760E0,8.826124983E-1,6.677612022E0
1.045618412E1,-2.542164713E0,6.620437417E0,1.728060386E0,7.299245558E0
1.046623413E1,-1.618641147E0,6.963743820E0,1.509128353E0,7.306927914E0
1.047628513E1,1.600686979E-1,7.180186694E0,9.798439470E-1,7.248503094E0
1.048633613E1,2.821074561E0,8.767895778E0,1.289359583E0,9.300371293E0
1.049638712E1,3.152698812E0,1.028430976E1,2.273543626E0,1.099434117E1
1.050643712E1,3.572588537E0,8.017866994E0,1.752301773E0,8.950985504E0
1.051648813E1,4.038644662E0,7.246152642E0,2.355306412E0,8.623505500E0
1.052653913E1,3.403739076E0,8.196094805E0,3.332646289E0,9.479870307E0
1.053659013E1,3.132223909E0,8.874496366E0,3.150130422E0,9.924254836E0
1.054664012E1,3.282129854E0,9.611547255E0,2.761237080E0,1.052514357E1
1.055669112E1,3.871045919E0,1.076301897E1,1.493264272E0,1.153505145E1
1.056674213E1,4.300060810E0,1.200491495E1,-4.695574370E-1,1.276044631E1
1.057679213E1,4.722294391E0,1.148913322E1,-3.421031924E-1,1.242647501E1
1.058684312E1,4.399570187E0,9.944626293E0,1.857628107E0,1.103188978E1
1.059689412E1,2.906645346E0,7.762244852E0,3.227313669E0,8.894750465E0
1.060694512E1,1.431995539E0,5.946644631E0,3.518288369E0,7.056312538E0
1.061699513E1,9.109652084E-1,4.261784644E0,2.899222013E0,5.234324621E0
1.062704613E1,1.123711765E0,2.502158064E0,1.082924219E0,2.948940144E0
1.063709712E1,9.713805409E-1,1.067208658E0,-1.094186688E0,1.811010486E0
1.064714712E1,1.178830835E-1,-3.578624618E-1,-2.740084192E0,2.765867557E0
1.065719812E1,-8.640351632E-1,-1.952282395E0,-3.762940550E0,4.326393983E0
1.066724913E1,-1.321465183E0,-3.494128259E0,-4.696540622E0,6.001057935E0
1.067730013E1,-1.570183663E0,-4.742961375E0,-5.709099741E0,7.586499799E0
1.068735012E1,-1.759572055E0,-5.799686560E0,-6.365525712E0,8.789333058E0
1.069740112E1,-1.795376603E0,-6.696499752E0,-6.689957303E0,9.634418238E0
1.070745212E1,-1.625382695E0,-7.405951198E0,-6.765232018E0,1.016161140E1
1.071750313E1,-1.531301287E0,-8.006228111E0,-6.607281767E0,1.049289019E1
1.072755313E1,-1.723593698E0,-8.463323085E0,-6.168679782E0,1.061372805E1
1.073760412E1,-1.803733297E0,-8.692697661E0,-5.768095808E0,1.058713255E1
1.074765512E1,-1.911274703E0,-8.968750559E0,-5.349464403E0,1.061641309E1
1.075770512E1,-2.332512504E0,-9.084835331E0,-4.603432776E0,1.044827454E1
1.076775613E1,-2.293980229E0,-8.881161608E0,-4.084952563E0,1.004112614E1
1.077780713E1,-1.971867352E0,-8.612570926E0,-3.674046500E0,9.568869133E0
1.078785812E1,-1.700273833E0,-8.439790966E0,-3.222336811E0,9.192630591E0
1.079790812E1,-1.693914401E0,-8.264875018E0,-3.094244197E0,8.986203437E0
1.080795912E1,-1.696767550E0,-7.960249701E0,-2.464489131E0,8.504016821E0
1.081801013E1,-1.227539603E0,-7.897664613E0,-1.408805920E0,8.115706619E0
1.082806013E1,-7.222761440E-1,-7.824053430E0,-8.241533518E-1,7.900425536E0
1.083811112E1,-1.155922906E0,-7.307647224E0,-4.236717045E-2,7.398625595E0
1.084816212E1,-1.361508085E0,-6.802230860E0,9.761423671E-1,7.005490908E0
1.085821312E1,-8.921471143E-1,-6.819608785E0,1.412175670E0,7.021198657E0
1.086826313E1,-8.088159589E-1,-6.658049047E0,1.353011788E0,6.842107955E0
1.087831413E1,-1.323857717E0,-5.711698244E0,1.301306322E0,6.005788393E0
1.088836512E1,-2.246595856E0,-4.386702805E0,1.739683481E0,5.226552693E0
1.089841612E1,-3.933481319E0,-3.088545501E0,3.979531943E0,6.391248945E0
1.090846613E1,-5.475871266E0,-2.677366957E0,4.754518397E0,7.730388420E0
1.091851713E1,-3.539893831E0,-1.275831465E0,4.738934982E0,6.051123782E0
1.092856813E1,-2.998158072E0,1.920715617E0,3.564319990E0,5.038102549E0
1.093861812E1,-3.083757216E0,4.628684562E0,3.229370135E0,6.431415925E0
1.094866912E1,-1.212880926E0,7.058154718E0,4.293458426E0,8.349994816E0
1.095872013E1,1.663282885E0,9.872230747E0,5.143490385E0,1.125535176E1
1.096877113E1,4.531516117E0,1.238700593E1,5.145336936E0,1.415793228E1
1.097882112E1,5.615886353E0,1.342633682E1,3.989473671E0,1.509041418E1
1.098887212E1,5.670078932E0,1.370439999E1,3.172479358E0,1.516657507E1
1.099892312E1,5.249184655E0,1.323893824E1,3.709101435E0,1.471668640E1
1.100897412E1,4.264889807E0,1.222344411E1,4.773222470E0,1.379802608E1
1.101902413E1,3.447357550E0,1.171714306E1,4.710174868E0,1.309051041E1
1.102907512E1,3.744817690E0,1.149702930E1,3.878652270E0,1.269839698E1
1.103912612E1,3.922460194E0,1.063474275E1,3.964552838E0,1.200837735E1
1.104917612E1,3.173040398E0,9.261116019E0,4.597684671E0,1.081550552E1
1.105922713E1,2.790643604E0,7.455078920E0,5.000838203E0,9.400759339E0
1.106927813E1,2.626105002E0,5.892382470E0,4.688081748E0,7.974629090E0
1.107932913E1,2.422200606E0,4.972551713E0,3.887699082E0,6.760734462E0
1.108937912E1,1.823148977E0,4.482846233E0,2.704434888E0,5.543802900E0
1.109943012E1,1.087370150E0,3.845777469E0,1.184417704E0,4.168359807E0
1.110948113E1,1.046965597E0,2.808128825E0,2.100562522E-1,3.004304926E0
1.111953213E1,1.116622308E0,1.513624862E0,1.012067660E0,2.135927562E0
1.112958212E1,9.394195139E-1,-2.413204372E-1,2.334724505E0,2.528177820E0
1.113963312E1,5.522978774E-1,-1.942915156E0,2.773877006E0,3.431376676E0
1.114968412E1,1.144528145E-1,-2.941231334E0,2.077147347E0,3.602566073E0
1.115973413E1,-1.165148351E-1,-3.778292999E0,1.116985420E0,3.941665907E0
1.116978513E1,-4.352179089E-1,-4.784029879E0,-1.150439680E-1,4.805163018E0
1.117983612E1,-6.778718036E-1,-5.761469159E0,-1.371443089E0,5.961115096E0
1.118988712E1,-1.105933598E0,-6.309022313E0,-2.580418660E0,6.905462485E0
1.119993712E1,-1.448699133E0,-6.373513008E0,-3.430473130E0,7.381635533E0
1.120998813E1,-9.050010484E-1,-6.589731933E0,-3.545891612E0,7.537701319E0
1.122003913E1,-4.846116784E-1,-6.979538904E0,-2.827238988E0,7.545998415E0
1.123008912E1,-1.340769765E0,-7.611455101E0,-1.944539805E0,7.969513622E0
1.124014012E1,-2.588919050E0,-8.181574414E0,-1.639837889E0,8.736688735E0
1.125019112E1,-3.642274484E0,-8.032894923E0,-2.884048196E0,9.279617355E0
1.126024213E1,-4.344418080E0,-7.186175997E0,-4.913542197E0,9.729233826E0
1.127029213E1,-4.437419507E0,-6.208843136E0,-6.498083260E0,1.002324853E1
1.128034312E1,-3.820390905E0,-6.057230682E0,-7.538581252E0,1.039786697E1
1.129039412E1,-3.909441369E0,-6.476563168E0,-8.080728071E0,1.106922619E1
1.130044512E1,-4.529335690E0,-6.449526812E0,-7.693738289E0,1.101384977E1
1.131049513E1,-4.398023306E0,-6.345381469E0,-7.099638959E0,1.048862948E1
1.132054613E1,-3.507010844E0,-6.648168422E0,-6.173083904E0,9.726470754E0
1.133059712E1,-2.930782360E0,-6.576268135E0,-5.895040029E0,9.305282627E0
1.134064712E1,-1.721317669E0,-5.578468266E0,-7.134932753E0,9.218975436E0
1.135069813E1,-2.013883397E-2,-4.463295482E0,-8.365269957E0,9.481516418E0
1.136074696E1,9.449509799E-2,-4.182380624E0,-8.062487682E0,9.083223251E0
1.137079796E1,1.269867598E-1,-3.988216812E0,-7.077055843E0,8.124451882E0
1.138084796E1,5.901017345E-1,-3.638214177E0,-6.316074055E0,7.312838978E0
1.139089896E1,-1.929648408E-1,-3.121135542E0,-5.331862530E0,6.181219988E0
1.140094996E1,-1.463605440E0,-1.764379781E0,-3.834423931E0,4.467435929E0
1.141100096E1,-1.903809562E0,1.737856811E-1,-2.051676875E0,2.804294976E0
1.142105096E1,-1.431119333E0,1.858890667E0,-2.616687477E-1,2.360518501E0
1.143110196E1,-4.859042054E-1,3.030081530E0,1.866159341E0,3.591663634E0
1.144115296E1,1.195049842E0,3.252337705E0,4.354492248E0,5.564840286E0
1.145120296E1,3.660655791E0,2.670113486E0,6.097685813E0,7.596820330E0
1.146125396E1,6.682946491E0,1.629757581E0,6.542133259E0,9.493018022E0
1.147130496E1,8.615820808E0,1.042994168E0,7.312706235E0,1.134882714E1
1.148135596E1,7.980274075E0,1.332869884E0,9.401328743E0,1.240347929E1
1.149140596E1,6.032372999E0,1.766542374E0,9.461918176E0,1.135949345E1
1.150145696E1,5.025970706E0,1.373032362E0,9.052328321E0,1.044462768E1
1.151150796E1,5.322738535E0,2.907799879E-1,9.997876886E0,1.133020921E1
1.152155796E1,5.135713003E0,-7.384694231E-1,1.015859696E1,1.140692673E1
1.153160896E1,4.281015551E0,-1.228070823E0,8.310633574E0,9.428779480E0
1.154165996E1,2.765085424E0,-1.852251154E0,4.882875305E0,5.909230321E0
1.155171096E1,1.785879993E-1,-2.510819252E0,-2.661652565E-1,2.531195554E0
1.156176096E1,-1.262809716E0,-2.757071815E0,-3.086887230E0,4.327240015E0
1.157181196E1,3.316353607E-1,-3.188093178E0,-3.188815309E0,4.521334227E0
1.158186296E1,4.329629887E0,-3.434183189E0,-1.736255844E0,5.792572268E0
1.159191396E1,7.338939768E0,-3.503631738E0,5.454499692E0,9.792192766E0
1.160196396E1,5.230720317E0,-3.651328897E0,4.774034064E0,7.967687180E0
1.161201496E1,1.600756561E0,-2.957859646E0,-1.847518417E0,3.837275017E0
1.162206596E1,1.717161176E0,-2.168834319E0,-1.654662627E0,3.223413287E0
1.163211596E1,9.066335911E-1,-1.944205636E0,4.098214048E-1,2.184004031E0
1.164216696E1,-1.274915206E0,-1.064153780E0,-1.581116349E-1,1.668182046E0
1.165221796E1,-2.408343582E0,3.315254331E-1,-1.841239092E0,3.049621176E0
1.166226896E1,-2.810244933E0,8.411107157E-1,-2.137782388E0,3.629746184E0
1.167231896E1,-3.645522612E0,7.224888365E-1,-1.713652847E0,4.092484736E0
1.168236996E1,-4.663940349E0,9.220496289E-1,-1.823719665E0,5.092000443E0
1.169242096E1,-5.125430090E0,1.454612423E0,-2.607689781E0,5.931776875E0
1.170247196E1,-5.293070932E0,2.031635982E0,-3.346639845E0,6.583626881E0
1.171252196E1,-5.166159455E0,2.621448280E0,-3.334333211E0,6.684233132E0
1.172257296E1,-4.122084721E0,2.990443840E0,-2.961411245E0,5.891035000E0
1.173262396E1,-3.137758006E0,3.266189467E0,-2.996132011E0,5.430499606E0
1.174267496E1,-3.512272754E0,3.802075964E0,-2.915058612E0,5.940488890E0
1.175272496E1,-4.388846979E0,4.206314740E0,-2.507036980E0,6.575735390E0
1.176277596E1,-5.253785244E0,4.221337114E0,-2.116397367E0,7.064069948E0
1.177282696E1,-5.323703910E0,4.141578754E0,-2.023134862E0,7.041844401E0
1.178287696E1,-5.016878870E0,4.363817095E0,-2.340427002E0,7.049083046E0
1.179292796E1,-4.769725251E0,4.582647679E0,-2.836683118E0,7.197062583E0
1.180297896E1,-4.462984411E0,4.550385374E0,-2.841427549E0,6.978391464E0
1.181302996E1,-3.632977411E0,4.552962534E0,-2.110899814E0,6.195473407E0
1.182307996E1,-2.740965075E0,4.774884541E0,-1.125346354E0,5.619503211E0
1.183313096E1,-2.677273402E0,4.934662925E0,-6.054002434E-1,5.646698195E0
1.184318196E1,-3.218003440E0,4.865721914E0,4.923478371E-1,5.854331924E0
1.185323196E1,-3.704536221E0,5.407214429E0,2.566442937E0,7.039047225E0
1.186328296E1,-4.399202397E0,6.967157425E0,5.210947958E0,9.749268841E0
1.187333396E1,-3.922960131E0,7.568666931E0,9.610303552E0,1.284648861E1
1.188338496E1,-5.138077033E-1,5.103539869E0,1.551168313E1,1.633776090E1
1.189343496E1,4.487118793E0,2.624808090E0,1.970725449E1,2.038135747E1
1.190348596E1,9.134109818E0,1.504635352E0,2.267814992E1,2.449478258E1
1.191353696E1,1.288472795E1,4.176025870E-1,2.491434972E1,2.805201290E1
1.192358796E1,1.536055600E1,-5.078438357E-2,2.514282616E1,2.946372290E1
1.193363796E1,1.645008406E1,3.444366699E-1,2.361125795E1,2.877873180E1
1.194368896E1,1.556074127E1,4.285883358E-1,2.122146115E1,2.631863922E1
1.195373996E1,1.301823859E1,-7.664968818E-2,1.790683364E1,2.213899506E1
1.196379096E1,1.060589259E1,-4.387668765E-1,1.406413473E1,1.762036775E1
1.197384096E1,8.419288289E0,-8.847363532E-1,1.059793102E1,1.356404496E1
1.198389196E1,5.895807184E0,-1.298457558E0,7.523265055E0,9.646038123E0
1.199394296E1,3.738896799E0,-1.608689479E0,4.932386604E0,6.394972144E0
1.200399296E1,2.152782251E0,-2.017585269E0,2.802055323E0,4.068984611E0
1.201404396E1,6.378429347E-1,-2.450988495E0,1.223667285E0,2.812747737E0
1.202409496E1,-2.979542291E-1,-3.099575688E0,-8.802398443E-2,3.115107445E0
1.203414596E1,-1.362312369E0,-3.930436966E0,-8.749182934E-1,4.250848357E0
1.204419596E1,-2.448244981E0,-4.639986060E0,-1.550905247E0,5.470711216E0
1.205424696E1,-3.113934696E0,-5.402853575E0,-2.119378277E0,6.586287295E0
1.206429796E1,-3.620590085E0,-6.201771514E0,-2.376576828E0,7.564308289E0
1.207434896E1,-4.008465135E0,-6.905527772E0,-2.746368195E0,8.443734056E0
1.208439896E1,-4.115845742E0,-7.653270879E0,-3.513411791E0,9.373196026E0
1.209444996E1,-3.810809950E0,-8.463040665E0,-3.813450845E0,1.003432794E1
1.210450096E1,-4.004759170E0,-9.381780331E0,-4.079969858E0,1.098644857E1
1.211455096E1,-4.459115308E0,-9.230496490E0,-4.807391844E0,1.132240218E1
1.212460196E1,-5.025103564E0,-8.838109143E0,-5.285096499E0,1.145845033E1
1.213465296E1,-5.576860866E0,-8.882508221E0,-6.041298189E0,1.210361984E1
1.214470396E1,-5.569033198E0,-8.897367750E0,-6.826933007E0,1.252135368E1
1.215475396E1,-5.989557931E0,-8.682142852E0,-7.400135558E0,1.288473574E1
1.216480496E1,-6.861981218E0,-8.092140666E0,-8.146056088E0,1.337638802E1
1.217485596E1,-7.365155175E0,-7.445114679E0,-8.799084826E0,1.367841866E1
1.218490696E1,-7.457393832E0,-7.199856727E0,-9.176694505E0,1.384421835E1
1.219495696E1,-7.596138904E0,-6.796936206E0,-9.338129697E0,1.382390445E1
1.220500796E1,-7.882124467E0,-6.353277549E0,-9.288003856E0,1.373896056E1
1.221505896E1,-8.047331114E0,-6.019603264E0,-9.126983231E0,1.357560254E1
1.222510896E1,-7.861929354E0,-5.713337218E0,-8.876547570E0,1.316226622E1
1.223515996E1,-7.824551613E0,-5.340785381E0,-8.440337681E0,1.268806118E1
1.224521096E1,-7.847263952E0,-4.868395261E0,-8.122363755E0,1.229852092E1
1.225526196E1,-7.758352361E0,-4.509275647E0,-7.895143293E0,1.195235901E1
1.226531196E1,-7.844722168E0,-4.208303086E0,-7.669325579E0,1.175023555E1
1.227536296E1,-7.966668774E0,-3.795548133E0,-7.487789998E0,1.157328804E1
1.228541396E1,-7.908397177E0,-3.473187041E0,-7.336380442E0,1.133261894E1
1.229546496E1,-7.795555270E0,-3.255816799E0,-7.022345200E0,1.098564323E1
1.230551496E1,-7.712745248E0,-2.701128872E0,-6.638973091E0,1.052893633E1
1.231556596E1,-7.849273056E0,-1.526395766E0,-5.806381037E0,9.882056076E0
1.232561696E1,-7.710344966E0,-5.385753393E-2,-4.773262816E0,9.068426437E0
1.233566696E1,-7.473442100E0,1.938185928E0,-3.671708783E0,8.549289263E0
1.234571796E1,-6.732644901E0,5.855878887E0,-1.379917166E0,9.029063976E0
1.235576896E1,-3.978442022E0,1.267179691E1,3.202518843E0,1.366230452E1
1.236581883E1,3.225703638E0,2.051965494E1,1.044157413E1,2.324839507E1
1.237586883E1,1.610172800E1,2.730789107E1,1.891731437E1,3.691681653E1
1.238591983E1,3.096654536E1,3.076165191E1,2.529026020E1,5.044604465E1
1.239597083E1,4.138083405E1,2.989163300E1,2.969578870E1,5.905694723E1
1.240602183E1,4.349387278E1,2.511865143E1,2.961252434E1,5.830579060E1
1.241607183E1,3.917879369E1,2.087053699E1,2.566111868E1,5.127426451E1
1.242612283E1,2.893647629E1,1.526370038E1,1.958623116E1,3.813031157E1
1.243617383E1,1.936287688E1,8.481711994E0,1.322798055E1,2.493671809E1
1.244622483E1,1.398478451E1,4.331851829E0,8.921326132E0,1.714436344E1
1.245627483E1,9.502155790E0,1.590968322E0,5.272129129E0,1.098259944E1
1.246632583E1,6.479663361E0,-5.793661004E-1,2.222537194E0,6.874690825E0
1.247637683E1,4.798226919E0,-2.344535841E0,-1.890568542E-1,5.343741420E0
1.248642783E1,3.105486639E0,-3.898721668E0,-2.131735198E0,5.421104395E0
1.249647783E1,1.749720812E0,-5.399247597E0,-3.472783583E0,6.653842751E0
1.250652883E1,2.031235009E-1,-6.617448320E0,-4.442791051E0,7.973096874E0
1.251657983E1,-1.240482708E0,-8.031133157E0,-5.297023650E0,9.700327658E0
1.252662983E1,-2.278684498E0,-9.620327434E0,-6.215494344E0,1.167799096E1
1.253668083E1,-3.303141823E0,-1.105665327E1,-7.330837281E0,1.367119244E1
1.254673183E1,-4.449425887E0,-1.218046824E1,-8.579863940E0,1.554912417E1
1.255678283E1,-5.695641789E0,-1.292168235E1,-9.690460693E0,1.712644851E1
1.256683283E1,-6.817349421E0,-1.353211178E1,-1.053178966E1,1.845299151E1
1.257688383E1,-7.840266005E0,-1.383712009E1,-1.125532646E1,1.948378909E1
1.258693483E1,-8.747113019E0,-1.386157081E1,-1.166150096E1,2.011580811E1
1.259698583E1,-9.482737187E0,-1.358995010E1,-1.161080326E1,2.023412466E1
1.260703583E1,-1.009820224E1,-1.305970003E1,-1.119187715E1,1.994461249E1
1.261708683E1,-1.009580722E1,-1.261727864E1,-1.064172082E1,1.934857271E1
1.262713783E1,-9.571579782E0,-1.223197753E1,-9.895300351E0,1.841611748E1
1.263718883E1,-8.967484052E0,-1.174984654E1,-9.120843655E0,1.736849023E1
1.264723883E1,-8.435102668E0,-1.110011797E1,-8.313919709E0,1.623221602E1
1.265728983E1,-7.931930466E0,-1.040230774E1,-7.672333971E0,1.516536303E1
1.266734083E1,-7.317852954E0,-9.679051021E0,-7.028866600E0,1.402283731E1
1.267739183E1,-6.660629423E0,-9.000314414E0,-6.412985222E0,1.290333381E1
1.268744183E1,-6.148881109E0,-8.222346464E0,-5.761703632E0,1.177340006E1
1.269749283E1,-5.992279226E0,-7.066647214E0,-5.102209042E0,1.057721373E1
1.270754383E1,-5.469033532E0,-6.161163186E0,-4.305710389E0,9.295665739E0
1.271759383E1,-4.477700683E0,-5.314958814E0,-3.578129359E0,7.816751263E0
1.272764483E1,-3.625242714E0,-4.367344428E0,-2.762153046E0,6.312334872E0
1.273769583E1,-2.818520497E0,-3.339238440E0,-1.983496587E0,4.798836303E0
1.274774683E1,-1.836063722E0,-2.137461961E0,-1.035756193E0,3.002110010E0
1.275779683E1,-1.152498484E0,-8.186452746E-1,-1.291971534E-1,1.419550896E0
1.276784783E1,-1.239700350E0,-1.316909909E-2,4.004760924E-1,1.302847452E0
1.277789883E1,-1.545714381E0,4.993855458E-1,8.431217194E-1,1.830156580E0
1.278794983E1,-1.940054698E0,1.264152821E0,1.579782599E0,2.803142459E0
1.279799983E1,-1.805849989E0,2.220356183E0,2.541470941E0,3.827551477E0
1.280805083E1,-9.659284508E-1,3.615304787E0,4.167379008E0,5.600936910E0
1.281810183E1,7.950646234E-1,5.845664971E0,6.645253000E0,8.886130437E0
1.282815283E1,3.997143171E0,8.083865687E0,9.280389027E0,1.294031137E1
1.283820283E1,8.239860045E0,1.025299441E1,1.215092109E1,1.790709556E1
1.284825383E1,1.247889259E1,1.223343466E1,1.496032461E1,2.300415172E1
1.285830483E1,1.604720973E1,1.304396985E1,1.695664005E1,2.674295667E1
1.286835483E1,1.791330066E1,1.315220532E1,1.824416185E1,2.875267443E1
1.287840583E1,1.822154014E1,1.287462162E1,1.897713138E1,2.929013354E1
1.288845683E1,1.734976239E1,1.182798405E1,1.885534324E1,2.822125848E1
1.289850783E1,1.535549231E1,1.029247481E1,1.813886987E1,2.589874093E1
1.290855783E1,1.334475647E1,8.079420633E0,1.662975380E1,2.280149719E1
1.291860883E1,1.205762643E1,5.893344337E0,1.474174049E1,1.993581639E1
1.292865983E1,1.020599332E1,4.134321482E0,1.283185859E1,1.690891802E1
1.293871083E1,7.768304322E0,2.031746056E0,9.992624917E0,1.281901310E1
1.294876083E1,5.632687157E0,9.110497007E-1,6.967828100E0,9.005987153E0
1.295881183E1,3.578610000E0,3.543538401E-1,4.604068953E0,5.842043059E0
1.296886283E1,1.897940127E0,1.694300902E-1,2.630960530E0,3.248512982E0
1.297891383E1,7.654800510E-1,-3.690201187E-1,8.843480980E-1,1.226461216E0
1.298896383E1,5.336695254E-2,-1.129092372E0,-2.372121835E-1,1.154974994E0
1.299901483E1,-9.568410006E-1,-1.686396051E0,-5.801238996E-1,2.023862663E0
1.300906583E1,-7.592147595E-1,-1.910143266E0,-2.805406947E0,3.477838766E0
1.301911683E1,-7.808401018E-2,-3.817644176E0,-3.426947844E0,5.130738318E0
1.302916683E1,3.314494193E-3,-5.695548819E0,-4.455727431E0,7.231375683E0
1.303921783E1,-3.428017884E-2,-6.546495867E0,-5.309623230E0,8.429109212E0
1.304926883E1,-4.813819689E-1,-7.387879794E0,-6.199679380E0,9.656527371E0
1.305931883E1,-7.423876423E-1,-7.943077013E0,-7.308924256E0,1.081961116E1
1.306936983E1,-1.501627545E0,-8.048329234E0,-8.059976887E0,1.148885182E1
1.307942083E1,-2.373328700E0,-7.862771353E0,-8.736878053E0,1.199120096E1
1.308947183E1,-2.790555311E0,-7.721430702E0,-9.548919482E0,1.259323447E1
1.309952183E1,-3.161265275E0,-7.898033572E0,-9.915551598E0,1.306486494E1
1.310957283E1,-3.100952708E0,-7.382939481E0,-1.021055532E1,1.297609892E1
1.311962383E1,-3.136344150E0,-6.682903807E0,-1.034956937E1,1.271264898E1
1.312967483E1,-3.227240579E0,-6.120848388E0,-1.019170156E1,1.231871127E1
1.313972483E1,-3.240670171E0,-5.471798680E0,-9.980227650E0,1.183416528E1
1.314977583E1,-3.106099719E0,-4.894124764E0,-9.577166212E0,1.119474990E1
1.315982683E1,-2.789059886E0,-4.545655854E0,-9.173209564E0,1.061082541E1
1.316987783E1,-2.158351139E0,-4.301612953E0,-8.762361973E0,9.997066619E0
1.317992783E1,-1.877849387E0,-3.902933418E0,-8.387725604E0,9.439976080E0
1.318997883E1,-1.850354463E0,-3.604075209E0,-8.052526365E0,9.014230450E0
1.320002983E1,-1.510485492E0,-3.502488023E0,-7.677226337E0,8.572560469E0
1.321007983E1,-1.121279177E0,-3.348232627E0,-7.320487710E0,8.127574609E0
1.322013083E1,-9.370844284E-1,-3.095484976E0,-6.920010740E0,7.638501365E0
1.323018183E1,-8.839102878E-1,-2.578673558E0,-6.595344676E0,7.136485557E0
1.324023283E1,-5.329411085E-1,-2.266923409E0,-6.392847412E0,6.803783212E0
1.325028283E1,-9.620701656E-2,-2.201856762E0,-5.728835263E0,6.138157905E0
1.326033383E1,-1.478412929E-1,-1.854963677E0,-5.355898095E0,5.669955176E0
1.327038483E1,-6.927103559E-1,-1.030898618E0,-4.910927323E0,5.065550983E0
1.328043583E1,-1.627519998E0,2.098074532E-1,-3.167236744E0,3.567103742E0
1.329048583E1,-2.456786009E0,2.134989173E0,-3.972762036E-1,3.278994457E0
1.330053683E1,-2.725090762E0,4.719512286E0,3.543523782E0,6.500498187E0
1.331058783E1,-1.842070274E0,7.182537859E0,7.578963293E0,1.060295985E1
1.332063883E1,9.011024174E-1,8.789044572E0,1.128378837E1,1.433119569E1
1.333068883E1,4.704495467E0,8.970108283E0,1.458773418E1,1.775942310E1
1.334073983E1,8.623540887E0,7.892306809E0,1.742755492E1,2.098508124E1
1.335079083E1,1.097683293E1,6.860051052E0,1.885308855E1,2.286897701E1
1.336084096E1,1.067441494E1,6.505118045E0,1.811444254E1,2.200892373E1
1.337089196E1,8.122521629E0,6.985763850E0,1.663641377E1,1.978753440E1
1.338094296E1,5.034121724E0,7.060902325E0,1.502558421E1,1.734839774E1
1.339099396E1,3.014312759E0,6.874950342E0,1.330113156E1,1.527321592E1
1.340104396E1,2.344381913E0,6.757028959E0,1.159193663E1,1.362081355E1
1.341109496E1,2.288270570E0,6.170132230E0,1.002031850E1,1.198805642E1
1.342114596E1,2.894259774E0,5.568025723E0,8.248004047E0,1.036384199E1
1.343119696E1,2.981020175E0,4.947996916E0,6.441679848E0,8.652421281E0
1.344124696E1,2.402969844E0,4.005327519E0,4.726181036E0,6.644825038E0
1.345129796E1,1.921409243E0,2.928042355E0,2.784921811E0,4.474487122E0
1.346134896E1,1.415250575E0,1.029018738E0,7.513648725E-1,1.904301164E0
1.347139996E1,1.014698761E0,-1.330740328E0,-1.362298921E0,2.157855822E0
1.348144996E1,8.007818846E-1,-3.770558302E0,-3.719643087E0,5.356687991E0
1.349150096E1,8.499635464E-1,-6.631361185E0,-5.892974793E0,8.912044721E0
1.350155196E1,9.636046211E-1,-9.716871981E0,-8.064535961E0,1.266423607E1
1.351160196E1,4.097380820E-1,-1.211577114E1,-1.027065300E1,1.588855276E1
1.352165296E1,-8.229545264E-1,-1.366262047E1,-1.188938215E1,1.813013679E1
1.353170396E1,-1.915814919E0,-1.452244768E1,-1.262122434E1,1.933564422E1
1.354175496E1,-2.770909251E0,-1.484388316E1,-1.281139801E1,1.980279587E1
1.355180496E1,-3.459267159E0,-1.480940096E1,-1.274977538E1,1.984544427E1
1.356185596E1,-3.859359967E0,-1.498979107E1,-1.244413791E1,1.986064107E1
1.357190696E1,-4.181879518E0,-1.524872800E1,-1.185586357E1,1.976292799E1
1.358195796E1,-4.742351511E0,-1.527217182E1,-1.092595046E1,1.936764115E1
1.359200796E1,-5.100791677E0,-1.511010221E1,-9.749436879E0,1.869183736E1
1.360205896E1,-5.026259558E0,-1.467451388E1,-8.310214913E0,1.759728146E1
1.361210996E1,-4.840042989E0,-1.412690342E1,-6.823331707E0,1.641807760E1
1.362216096E1,-4.594186282E0,-1.341819983E1,-5.493552661E0,1.520965993E1
1.363221096E1,-4.612756162E0,-1.262763874E1,-4.475546569E0,1.416916711E1
1.364226196E1,-4.567920589E0,-1.195536330E1,-3.698509496E0,1.332199620E1
1.365231296E1,-4.325928307E0,-1.106638889E1,-3.293123789E0,1.232977222E1
1.366236396E1,-4.205636755E0,-9.926393505E0,-3.244353333E0,1.125817468E1
1.367241396E1,-3.930875507E0,-8.799360815E0,-3.426949598E0,1.022861264E1
1.368246496E1,-3.586564552E0,-7.758570462E0,-3.488684501E0,9.231997641E0
1.369251596E1,-3.363114960E0,-6.240223389E0,-3.399948326E0,7.861970414E0
1.370256596E1,-3.400271677E0,-4.260415226E0,-3.179348667E0,6.310407540E0
1.371261696E1,-3.200792161E0,-1.537307839E0,-2.491008008E0,4.337453947E0
1.372266796E1,-2.554487720E0,2.958427411E0,-1.139975210E0,4.071516147E0
1.373271896E1,-1.561273822E0,9.052854570E0,7.459269619E-1,9.216732547E0
1.374276896E1,1.089024619E0,1.690675628E1,2.604046381E0,1.714075378E1
1.375281996E1,6.077252133E0,2.613315738E1,4.756860791E0,2.724890150E1
1.376287096E1,1.376083498E1,3.419485861E1,6.953235789E0,3.750995098E1
1.377292196E1,2.247550881E1,3.883954525E1,8.056919378E0,4.559136674E1
1.378297196E1,2.862531086E1,4.029271399E1,8.290245502E0,5.011625877E1
1.379302296E1,3.032851590E1,4.113131231E1,8.022368765E0,5.172970259E1
1.380307396E1,2.747885196E1,3.939453489E1,7.469816827E0,4.860879394E1
1.381312496E1,2.228989246E1,3.358308549E1,6.314998752E0,4.079880079E1
1.382317496E1,1.690735971E1,2.729641182E1,5.280245649E0,3.253972810E1
1.383322596E1,1.360823200E1,2.251612123E1,4.793150951E0,2.674198926E1
1.384327696E1,1.197703893E1,1.859235185E1,4.652257612E0,2.260018827E1
1.385332796E1,1.080321273E1,1.499123416E1,4.670578693E0,1.905940220E1
1.386337796E1,9.463731397E0,1.100815062E1,4.651912626E0,1.524407699E1
1.387342896E1,7.812683519E0,7.274088884E0,4.545550604E0,1.160225940E1
1.388347996E1,5.801034343E0,3.696850641E0,4.417585459E0,8.175192071E0
1.389353096E1,3.622270867E0,7.155120850E-2,4.112101770E0,5.480451330E0
1.390358096E1,1.904863231E0,-3.046188855E0,3.739309613E0,5.185576809E0
1.391363196E1,6.516610748E-1,-5.795007033E0,3.296291810E0,6.698679599E0
1.392368296E1,-3.108145952E-1,-8.281643663E0,2.858799627E0,8.766696230E0
1.393373296E1,-9.083427322E-1,-1.022291166E1,2.360145714E0,1.053106344E1
1.394378396E1,-1.048488797E0,-1.169284554E1,1.824104996E0,1.188062812E1
1.395383496E1,-9.065347731E-1,-1.290021956E1,1.182101768E0,1.298594758E1
1.396388596E1,-6.783284712E-1,-1.384810818E1,4.042150944E-1,1.387060271E1
1.397393596E1,-3.722056818E-1,-1.472232422E1,-3.720559931E-1,1.473172744E1
1.398398696E1,-2.854368022E-1,-1.551952542E1,-1.251703076E0,1.557253685E1
1.399403796E1,-5.562482563E-1,-1.588638441E1,-2.193090178E0,1.604669019E1
1.400408896E1,-1.135485426E0,-1.596769345E1,-2.891243488E0,1.626701725E1
1.401413896E1,-1.855198150E0,-1.585073276E1,-3.444469610E0,1.632641602E1
1.402418996E1,-2.578426806E0,-1.569014249E1,-3.806504645E0,1.634987259E1
1.403424096E1,-3.190199345E0,-1.543061266E1,-3.999405459E0,1.625658091E1
1.404429196E1,-3.612962977E0,-1.502464749E1,-4.113065391E0,1.599096122E1
1.405434196E1,-3.806936755E0,-1.470017146E1,-4.063764592E0,1.571947808E1
1.406439296E1,-3.658408999E0,-1.437265839E1,-3.936040937E0,1.534436977E1
1.407444396E1,-3.538324438E0,-1.398405828E1,-3.681904573E0,1.488724444E1
1.408449496E1,-3.395572270E0,-1.359560904E1,-3.333963667E0,1.440436773E1
1.409454496E1,-3.223547185E0,-1.329164036E1,-3.080676318E0,1.401961221E1
1.410459596E1,-3.299164547E0,-1.253674377E1,-3.347276022E0,1.338875229E1
1.411464696E1,-3.292023635E0,-1.232454130E1,-3.101737989E0,1.312830973E1
1.412469796E1,-3.128838664E0,-1.233842726E1,-3.200849463E0,1.312523737E1
1.413474796E1,-2.962847906E0,-1.226475118E1,-3.046350823E0,1.298009409E1
1.414479896E1,-2.871346290E0,-1.233218361E1,-2.624498187E0,1.293117832E1
1.415484996E1,-2.861831408E0,-1.245863432E1,-2.456877226E0,1.301706165E1
1.416489996E1,-2.774527801E0,-1.254580462E1,-2.276889403E0,1.304911657E1
1.417495096E1,-3.089010062E0,-1.227848161E1,-2.130039067E0,1.283900932E1
1.418500196E1,-4.245033832E0,-1.164918789E1,-2.148848975E0,1.258337962E1
1.419505296E1,-5.387523930E0,-1.099455701E1,-2.825284556E0,1.256534643E1
1.420510296E1,-6.400474520E0,-1.011638942E1,-4.500672639E0,1.278919322E1
1.421515396E1,-7.219401630E0,-1.013588872E1,-5.049857166E0,1.342970802E1
1.422520496E1,-7.480176339E0,-9.996805676E0,-4.905703420E0,1.341473398E1
1.423525596E1,-7.482236897E0,-8.682069762E0,-5.800404013E0,1.284550081E1
1.424530596E1,-8.680020313E0,-5.760315503E0,-6.836124830E0,1.246020024E1
1.425535696E1,-1.284363605E1,-9.324028552E-1,-6.063379614E0,1.423351448E1
1.426540796E1,-1.595441091E1,8.885781493E0,-3.875825726E0,1.866875372E1
1.427545896E1,-1.086900443E1,2.685917341E1,2.215433266E-1,2.897584399E1
1.428550896E1,2.073635509E0,4.526424595E1,4.003746432E0,4.548826125E1
1.429555996E1,2.134136415E1,5.544107220E1,6.533761216E0,5.976500938E1
1.430561096E1,4.027778255E1,5.614176042E1,8.317011716E0,6.959432242E1
1.431566196E1,4.944417250E1,5.420466208E1,9.859497850E0,7.402757110E1
1.432571196E1,4.408411879E1,4.862114649E1,1.176486453E1,6.667711341E1
1.433576296E1,3.125555686E1,3.720450471E1,1.180792225E1,5.000512007E1
1.434581396E1,2.026447309E1,2.369870189E1,8.892560170E0,3.242460435E1
1.435586496E1,1.460202010E1,1.453780130E1,6.786795380E0,2.169394499E1
1.436591483E1,1.158759332E1,8.708958768E0,5.346875841E0,1.545015738E1
1.437596583E1,1.004639006E1,3.871919786E0,4.328097332E0,1.160405716E1
1.438601683E1,9.262626940E0,-3.096901757E-1,3.819867872E0,1.002414866E1
1.439606783E1,8.213956879E0,-4.093011780E0,3.659353616E0,9.879914065E0
1.440611783E1,6.967109478E0,-7.683924322E0,3.675829901E0,1.100431883E1
1.441616883E1,5.693410492E0,-1.111034358E1,3.904392883E0,1.308047940E1
1.442621983E1,4.517260605E0,-1.425330619E1,4.207436528E0,1.553270430E1
1.443626983E1,3.102664188E0,-1.741375900E1,3.864700813E0,1.810528762E1
1.444632083E1,9.471509948E-1,-2.025677114E1,2.836339302E0,2.047629587E1
1.445637183E1,-1.567901787E0,-2.247631339E1,1.453695141E0,2.257778132E1
1.446642283E1,-3.775295132E0,-2.425387630E1,-1.385003659E-1,2.454633479E1
1.447647283E1,-5.316096683E0,-2.550618618E1,-1.634460643E0,2.610551434E1
1.448652383E1,-6.981775464E0,-2.603957854E1,-2.802074618E0,2.710454688E1
1.449657483E1,-8.278418924E0,-2.578051882E1,-3.443563292E0,2.729515523E1
1.450662583E1,-8.820310219E0,-2.485869592E1,-3.355772027E0,2.658973187E1
1.451667583E1,-9.208440208E0,-2.342446748E1,-2.647942014E0,2.530835128E1
1.452672683E1,-9.302195633E0,-2.180089216E1,-1.849283545E0,2.377455766E1
1.453677783E1,-8.608336957E0,-2.034527460E1,-1.141849097E0,2.212097382E1
1.454682883E1,-7.522103798E0,-1.899537937E1,-4.745189457E-1,2.043603805E1
1.455687883E1,-6.385737197E0,-1.779038751E1,2.390925018E-1,1.890324556E1
1.456692983E1,-5.211605769E0,-1.667207477E1,9.944907837E-1,1.749594021E1
1.457698083E1,-3.934973236E0,-1.557038216E1,1.603314718E0,1.613974700E1
1.458703183E1,-2.643040293E0,-1.438766117E1,1.853913517E0,1.474542137E1
1.459708183E1,-1.446787094E0,-1.326484374E1,1.824175748E0,1.346762375E1
1.460713283E1,-6.293419603E-1,-1.199962906E1,1.790300342E0,1.214875896E1
1.461718383E1,6.001728326E-2,-1.049422246E1,1.896070772E0,1.066430455E1
1.462723483E1,6.123932210E-1,-8.913325971E0,1.969842753E0,9.148917193E0
1.463728483E1,9.921023422E-1,-7.105327131E0,2.089421822E0,7.472323885E0
1.464733583E1,9.762265670E-1,-5.185528357E0,2.144045341E0,5.695581891E0
1.465738683E1,6.499665517E-1,-4.171780792E0,2.290851384E0,4.803562382E0
1.466743783E1,7.015720305E-1,-3.340131310E0,2.505486884E0,4.233927846E0
1.467748783E1,9.343052468E-1,-1.825567970E0,2.744731559E0,3.426248099E0
1.468753883E1,7.136441919E-1,-7.726446444E-1,2.966606496E0,3.147542197E0
1.469758983E1,1.830900630E-1,-2.307369769E-1,2.973268229E0,2.987822867E0
1.470763983E1,-2.957679552E-1,2.192004204E-1,2.897400606E0,2.920694742E0
1.471769083E1,-9.572421196E-1,7.218346792E-1,2.994039293E0,3.225155666E0
1.472774183E1,-1.736539434E0,8.825576806E-1,2.875523833E0,3.473199473E0
1.473779283E1,-2.446262190E0,6.430048567E-1,2.596191816E0,3.624619414E0
1.474784283E1,-3.137811508E0,5.696047586E-1,2.368725772E0,3.972552382E0
1.475789383E1,-3.375454047E0,1.109851817E0,2.344507189E0,4.257014804E0
1.476794483E1,-2.286412471E0,3.650705584E0,2.726116948E0,5.097749196E0
1.477799583E1,2.770323068E-1,9.865036333E0,4.040344155E0,1.066396125E1
1.478804583E1,4.802959070E0,1.751752018E1,5.495433125E0,1.897713662E1
1.479809683E1,1.232150074E1,2.531108564E1,6.585002121E0,2.891077117E1
1.480814783E1,2.139513515E1,3.260590816E1,7.094211574E0,3.963867926E1
1.481819883E1,2.997239240E1,3.599053854E1,6.578923355E0,4.729635719E1
1.482824883E1,3.566703315E1,3.503733246E1,5.259461721E0,5.027339114E1
1.483829983E1,3.621060669E1,3.280404458E1,4.333134123E0,4.905190545E1
1.484835083E1,3.149559208E1,2.943184538E1,4.232081373E0,4.331415884E1
1.485840183E1,2.470184787E1,2.362066963E1,3.981360952E0,3.440884416E1
1.486845183E1,1.892710378E1,1.692907160E1,3.225351636E0,2.559749237E1
1.487850283E1,1.503847382E1,1.114545962E1,2.281391174E0,1.885687436E1
1.488855383E1,1.198904560E1,6.676667751E0,1.423625103E0,1.379644212E1
1.489860483E1,9.584265316E0,3.157588254E0,7.158646721E-1,1.011637126E1
1.490865483E1,7.514321739E0,3.179710025E-1,-3.155976176E-2,7.521112469E0
1.491870583E1,5.305652386E0,-2.054127443E0,-5.607070506E-1,5.716972905E0
1.492875683E1,3.069820085E0,-4.223083093E0,-1.053124470E0,5.326095879E0
1.493880783E1,9.956024855E-1,-6.140668110E0,-1.479770068E0,6.394431062E0
1.494885783E1,-8.018079248E-1,-7.467539921E0,-1.755479150E0,7.712895401E0
1.495890883E1,-2.427199098E0,-8.736396242E0,-1.691003072E0,9.223633024E0
1.496895983E1,-3.751015154E0,-9.806392268E0,-2.105792856E0,1.070839893E1
1.497901083E1,-4.556213586E0,-1.036197248E1,-2.660719349E0,1.162793977E1
1.498906083E1,-5.079903669E0,-1.090081913E1,-3.326642368E0,1.247797373E1
1.499911183E1,-5.472741836E0,-1.127171036E1,-3.712656834E0,1.306851860E1
1.500916283E1,-5.997659249E0,-1.153079814E1,-3.826888039E0,1.354903297E1
1.501921383E1,-6.617637770E0,-1.162034708E1,-3.743024933E0,1.388653418E1
1.502926383E1,-7.198251082E0,-1.167176282E1,-3.397394847E0,1.412753190E1
1.503931483E1,-7.729564179E0,-1.175185447E1,-3.161493609E0,1.441690978E1
1.504936583E1,-8.019639285E0,-1.164372425E1,-3.066123767E0,1.446692931E1
1.505941683E1,-8.292845759E0,-1.146292600E1,-2.992608479E0,1.446117799E1
1.506946683E1,-8.544464897E0,-1.123688785E1,-2.923970354E0,1.441614135E1
1.507951783E1,-8.687491300E0,-1.082606248E1,-2.832442133E0,1.416682259E1
1.508956883E1,-8.668008378E0,-1.037199227E1,-2.701012512E0,1.378434117E1
1.509961983E1,-8.530179564E0,-9.990937411E0,-2.443369573E0,1.336236688E1
1.510966983E1,-8.374429035E0,-9.622126037E0,-2.189151347E0,1.294251733E1
1.511972083E1,-8.295730190E0,-9.249409894E0,-1.973526499E0,1.258036286E1
1.512977183E1,-8.264938168E0,-8.874373575E0,-1.787807236E0,1.225805710E1
1.513982183E1,-8.151993350E0,-8.505383277E0,-1.646537921E0,1.189569785E1
1.514987283E1,-8.052863165E0,-8.159534504E0,-1.595315142E0,1.157461182E1
1.515992383E1,-7.946756666E0,-7.854607471E0,-1.517799774E0,1.127605943E1
1.516997483E1,-7.792338132E0,-7.575776560E0,-1.495846987E0,1.097043674E1
1.518002483E1,-7.605996725E0,-7.253279228E0,-1.502577717E0,1.061691978E1
1.519007583E1,-7.337323013E0,-6.996601664E0,-1.436843319E0,1.023978821E1
1.520012683E1,-7.051746755E0,-6.886050696E0,-1.272821319E0,9.938053159E0
1.521017783E1,-6.730398985E0,-6.851928100E0,-1.166413688E0,9.675107755E0
1.522022783E1,-6.529903223E0,-6.753959756E0,-1.029072679E0,9.450640140E0
1.523027883E1,-7.041837478E0,-6.575885727E0,-8.859690924E-1,9.675468433E0
1.524032983E1,-7.821261384E0,-6.313494848E0,-6.988429888E-1,1.007574952E1
1.525038083E1,-8.540850733E0,-5.713023807E0,-5.447225171E-1,1.028987341E1
1.526043083E1,-9.702218274E0,-4.830565529E0,-5.065682656E-1,1.085006978E1
1.527048183E1,-9.814197131E0,-3.680259166E0,-1.795922586E-1,1.048308286E1
1.528053283E1,-8.352604887E0,1.525269592E-1,8.306367445E-1,8.395190902E0
1.529058383E1,-4.417915242E0,9.407889318E0,4.042599426E0,1.115208351E1
1.530063383E1,7.788014116E0,2.200452729E1,1.209179989E1,2.628809635E1
1.531068483E1,2.625492214E1,3.195241867E1,2.123693990E1,4.648962907E1
1.532073583E1,4.444582287E1,3.591920953E1,2.801080358E1,6.364138513E1
1.533078683E1,5.412436343E1,3.317702677E1,2.948180867E1,6.999527744E1
1.534083683E1,5.188547859E1,3.111333153E1,2.776994741E1,6.656810247E1
1.535088783E1,4.137527218E1,2.717420033E1,2.336464344E1,5.473807518E1
1.536093833E1,2.920851215E1,1.853594025E1,1.691151358E1,3.850607166E1
1.537098933E1,2.140464974E1,1.184532221E1,1.197079411E1,2.723546585E1
1.538103933E1,1.640518914E1,7.444884299E0,8.345636761E0,1.985462631E1
1.539109033E1,1.260248402E1,2.987685708E0,5.282821348E0,1.398774716E1
1.540114133E1,9.617598538E0,-1.274434565E0,2.801817048E0,1.009814656E1
1.541119233E1,6.700889842E0,-5.152779856E0,8.186230552E-1,8.492538409E0
1.542124233E1,3.686364537E0,-8.239111601E0,-6.369567892E-1,9.048643955E0
1.543129333E1,1.201872666E0,-1.079882030E1,-1.866180098E0,1.102459278E1
1.544134433E1,-3.868950570E-1,-1.366669481E1,-3.128519113E0,1.402554336E1
1.545139533E1,-1.403182945E0,-1.642939310E1,-4.145645492E0,1.700236033E1
1.546144533E1,-2.175008394E0,-1.839670869E1,-4.859092048E0,1.915150980E1
1.547149633E1,-2.675307568E0,-1.994273122E1,-5.402577002E0,2.083404995E1
1.548154733E1,-3.333962789E0,-2.093927218E1,-6.100805302E0,2.206327838E1
1.549159833E1,-4.314641134E0,-2.138116732E1,-6.903867162E0,2.287867623E1
1.550164833E1,-5.467707968E0,-2.116571380E1,-7.548033861E0,2.312695583E1
1.551169933E1,-6.705199825E0,-2.028801164E1,-7.916960424E0,2.278686866E1
1.552175033E1,-7.477740973E0,-1.908178017E1,-7.979694031E0,2.199332766E1
1.553180133E1,-7.729519156E0,-1.791231599E1,-7.859793366E0,2.103266227E1
1.554185133E1,-7.451475281E0,-1.677279306E1,-7.537741007E0,1.984108390E1
1.555190233E1,-6.766862807E0,-1.564258007E1,-7.063721852E0,1.844930649E1
1.556195333E1,-5.798971446E0,-1.452558062E1,-6.607691656E0,1.697887367E1
1.557200433E1,-4.925606757E0,-1.322523587E1,-6.214604983E0,1.542043387E1
1.558205433E1,-4.255897959E0,-1.191532742E1,-5.770624144E0,1.390639414E1
1.559210533E1,-3.652949746E0,-1.053037814E1,-5.164781266E0,1.228445648E1
1.560215633E1,-3.076100872E0,-8.806172821E0,-4.294431403E0,1.026904170E1
1.561220733E1,-2.511112490E0,-6.472756630E0,-3.643033453E0,7.840532958E0
1.562225733E1,-2.104580728E0,-3.866352652E0,-3.487733744E0,5.616246926E0
1.563230833E1,-1.782634204E0,-1.797603661E0,-3.461673873E0,4.288630274E0
1.564235933E1,-1.850402849E0,-5.563941443E-1,-3.563886711E0,4.053992308E0
1.565241033E1,-2.098652236E0,1.941445166E-1,-3.548850596E0,4.127514247E0
1.566246033E1,-2.698765427E0,5.191526431E-1,-3.276440513E0,4.276437388E0
1.567251133E1,-3.734104421E0,4.012131339E-1,-3.095562159E0,4.866930541E0
1.568256233E1,-4.977990208E0,-1.149814028E-1,-3.061086391E0,5.844985640E0
1.569261233E1,-6.150581480E0,-6.966817117E-1,-3.053052317E0,6.901894406E0
1.570266333E1,-7.267430660E0,-1.331015148E0,-3.072220075E0,8.001605208E0
1.571271433E1,-8.430779822E0,-1.867959698E0,-3.304743376E0,9.246007280E0
1.572276533E1,-9.359787199E0,-2.124550724E0,-3.483098656E0,1.021035300E1
1.573281533E1,-1.035295140E1,-2.214621234E0,-3.289904312E0,1.108655132E1
1.574286633E1,-1.135602838E1,-2.247800090E0,-2.974506669E0,1.195239205E1
1.575291733E1,-1.212459693E1,-2.269380409E0,-2.545576563E0,1.259507436E1
1.576296833E1,-1.253179469E1,-1.331260146E0,-2.305572919E0,1.281147135E1
1.577301833E1,-1.089536602E1,3.029707308E0,-1.811617098E0,1.145295087E1
1.578306933E1,-5.948793483E0,1.166734934E1,-1.074028996E0,1.314034714E1
1.579312033E1,2.689444966E0,2.042521539E1,5.044656799E-1,2.060769331E1
1.580317133E1,1.449000850E1,2.763917092E1,2.509013924E0,3.130781478E1
1.581322133E1,2.747027527E1,3.524218849E1,4.849737965E0,4.494605468E1
1.582327233E1,3.884402188E1,3.786877180E1,7.328191416E0,5.474124864E1
1.583332333E1,4.481818760E1,3.694132855E1,7.520133871E0,5.856521244E1
1.584337433E1,4.367418687E1,3.307876080E1,7.089786401E0,5.524404118E1
1.585342433E1,3.516817677E1,2.592652848E1,6.254216360E0,4.413729442E1
1.586347533E1,2.436934712E1,1.765505370E1,5.410239193E0,3.057509916E1
1.587352633E1,1.699752261E1,1.152415103E1,5.109631498E0,2.116199815E1
1.588357733E1,1.214837171E1,7.329235729E0,4.962550635E0,1.503088621E1
1.589362733E1,8.327426777E0,3.715655871E0,4.286430658E0,1.007599241E1
1.590367833E1,5.641948562E0,7.900272471E-1,3.642856282E0,6.762109769E0
1.591372933E1,3.333988225E0,-1.531581076E0,3.183313079E0,4.857437620E0
1.592378033E1,1.213828467E0,-3.380325655E0,2.721039811E0,4.506000303E0
1.593383033E1,-5.301930633E-1,-4.791446487E0,2.268230846E0,5.327657581E0
1.594388133E1,-1.976206571E0,-6.044029423E0,1.759244757E0,6.597774336E0
1.595393233E1,-2.983456125E0,-7.140626187E0,1.312931464E0,7.849416655E0
1.596398333E1,-3.609154393E0,-7.948868680E0,9.325566369E-1,8.779531343E0
1.597403333E1,-3.764164957E0,-8.564806775E0,4.479668856E-1,9.366190648E0
1.598408433E1,-3.577680877E0,-9.232023198E0,1.470299917E-1,9.902104353E0
1.599413533E1,-3.332945082E0,-1.008347194E1,2.515596427E-2,1.062005471E1
1.600418633E1,-3.125814484E0,-1.087612985E1,-4.091823041E-2,1.131647432E1
1.601423633E1,-3.139228581E0,-1.161874261E1,-8.851398110E-2,1.203568737E1
1.602428733E1,-3.345715985E0,-1.233727185E1,-1.880838776E-1,1.278426642E1
1.603433833E1,-3.726565606E0,-1.298590816E1,-4.008705602E-1,1.351598310E1
1.604438933E1,-4.219428875E0,-1.329936570E1,-8.454910111E-1,1.397825322E1
1.605443933E1,-4.869352742E0,-1.336095325E1,-1.217233593E0,1.427260753E1
1.606449033E1,-5.467981033E0,-1.332110799E1,-1.520846612E0,1.447976896E1
1.607454133E1,-5.863810050E0,-1.331055493E1,-1.788631108E0,1.465449904E1
1.608459233E1,-6.164415407E0,-1.328699767E1,-2.015183818E0,1.478530657E1
1.609464233E1,-6.436974009E0,-1.312196586E1,-2.151904584E0,1.477333123E1
1.610469333E1,-6.658284105E0,-1.285854411E1,-2.322622815E0,1.466524738E1
1.611474433E1,-6.866650804E0,-1.263815905E1,-2.411894303E0,1.458393608E1
1.612479533E1,-6.928020841E0,-1.263586109E1,-2.385268276E0,1.460657260E1
1.613484533E1,-7.063575672E0,-1.280673077E1,-2.496100348E0,1.483701355E1
1.614489633E1,-7.319504793E0,-1.306334635E1,-2.768681462E0,1.522799282E1
1.615494733E1,-7.371860762E0,-1.356166010E1,-3.162830867E0,1.575647343E1
1.616499833E1,-7.734278204E0,-1.426477141E1,-3.454313398E0,1.659020928E1
1.617504833E1,-8.421508477E0,-1.485012331E1,-3.660306128E0,1.745983414E1
1.618509933E1,-9.034446366E0,-1.520344833E1,-3.832655733E0,1.809572635E1
1.619515033E1,-9.428349311E0,-1.529266047E1,-3.900243114E0,1.838399117E1
1.620520133E1,-9.848958828E0,-1.539631055E1,-3.871346174E0,1.868249688E1
1.621525133E1,-1.024940890E1,-1.553377859E1,-3.684748659E0,1.897171665E1
1.622530233E1,-1.022382149E1,-1.538453660E1,-3.048516047E0,1.872175051E1
1.623535333E1,-1.073170128E1,-1.523613426E1,-2.429860750E0,1.879397305E1
1.624540433E1,-1.120028311E1,-1.505064655E1,-1.374742965E0,1.881111963E1
1.625545433E1,-1.115391586E1,-1.505891451E1,-3.072776145E-1,1.874233616E1
1.626550533E1,-1.096634537E1,-1.482040191E1,9.104798895E-1,1.845898202E1
1.627555633E1,-7.239768652E0,-1.373655032E1,2.003308123E0,1.565631848E1
1.628560733E1,9.757582051E-1,-1.029651875E1,2.243179620E0,1.058311189E1
1.629565733E1,1.435815145E1,9.311994982E-1,2.453580565E0,1.459601668E1
1.630570833E1,3.033514898E1,2.150772913E1,3.983179436E0,3.739878868E1
1.631575933E1,4.850074998E1,3.900505654E1,5.610384123E0,6.249154818E1
1.632581033E1,6.616490313E1,4.893117054E1,4.313419651E0,8.240545762E1
1.633586033E1,7.090929648E1,4.883403660E1,2.924484324E0,8.614780361E1
1.634591133E1,6.757701038E1,4.295046062E1,-5.159692727E-2,8.007119995E1
1.635596233E1,5.068309459E1,3.792799240E1,-3.011711333E0,6.337490899E1
1.636601400E1,2.986757288E1,3.024711097E1,-4.567096424E0,4.275298821E1
1.637606400E1,1.579101398E1,2.042097733E1,-5.538124816E0,2.640157692E1
1.638611500E1,7.811236918E0,1.463082582E1,-5.661763022E0,1.752518322E1
1.639616600E1,3.403212242E0,1.084088049E1,-4.856183935E0,1.235674172E1
1.640621700E1,2.860083675E-1,7.527811266E0,-4.491313001E0,8.770498031E0
1.641626700E1,-2.775604858E0,4.715135645E0,-4.207609606E0,6.902207261E0
1.642631800E1,-4.835905792E0,2.787385243E0,-3.301526238E0,6.485027125E0
1.643636900E1,-6.160693654E0,7.769458562E-1,-2.127079645E0,6.563707716E0
1.644642000E1,-7.267835287E0,-2.107534742E0,-1.401728450E0,7.695971355E0
1.645647000E1,-8.149343392E0,-5.594553371E0,-1.351319604E0,9.976817620E0
1.646652100E1,-8.823380592E0,-8.808709343E0,-1.663976072E0,1.257832349E1
1.647657200E1,-9.187589037E0,-1.160697567E1,-2.049624503E0,1.494438480E1
1.648662300E1,-1.003261753E1,-1.438299626E1,-2.239660035E0,1.767880293E1
1.649667300E1,-1.145049950E1,-1.638462565E1,-2.379043184E0,2.013031900E1
1.650672400E1,-1.260655017E1,-1.731724018E1,-2.150348639E0,2.152756172E1
1.651677500E1,-1.339821990E1,-1.751690505E1,-1.642054861E0,2.211448853E1
1.652682600E1,-1.331071983E1,-1.743101764E1,-1.446152671E0,2.197969508E1
1.653687600E1,-1.222864696E1,-1.701795863E1,-1.059440632E0,2.098268660E1
1.654692700E1,-1.133902584E1,-1.625404095E1,-4.929916155E-1,1.982448978E1
1.655697800E1,-9.591576090E0,-1.525653754E1,3.954447826E-1,1.802544441E1
1.656702900E1,-7.532110139E0,-1.396695635E1,7.441331823E-1,1.588591473E1
1.657707900E1,-5.943107650E0,-1.269144472E1,1.163139832E0,1.406222571E1
1.658713000E1,-4.500024183E0,-1.139236882E1,1.147858572E0,1.230259584E1
1.659718100E1,-3.584751915E0,-1.023531009E1,9.213561492E-1,1.088397520E1
1.660723200E1,-3.378668554E0,-9.098296207E0,6.898673666E-1,9.729867011E0
1.661728200E1,-3.596984875E0,-7.994273479E0,4.450806999E-1,8.777517045E0
1.662733300E1,-4.260661393E0,-6.968717462E0,2.424793553E-1,8.171600505E0
1.663738400E1,-5.311622393E0,-6.065345448E0,4.618598700E-2,8.062498434E0
1.664743500E1,-6.467869527E0,-5.323295190E0,-3.363376915E-1,8.383551213E0
1.665748500E1,-7.720967603E0,-4.508887392E0,-6.760103425E-1,8.966626803E0
1.666753600E1,-8.575439937E0,-3.809917665E0,-9.467165467E-1,9.431326256E0
1.667758700E1,-9.031974748E0,-3.131247717E0,-1.115425237E0,9.624211841E0
1.668763800E1,-9.768410509E0,-2.527740217E0,-1.414268681E0,1.018879141E1
1.669768800E1,-1.047981843E1,-2.128363109E0,-1.559701506E0,1.080690486E1
1.670773900E1,-1.114327042E1,-1.719452115E0,-1.616746649E0,1.139047238E1
